"","trial","subject","ttype","run","gallery_left","gallery_right","art_left","art_right","stim_left","stim_right","val_left","val_right","rt","key_press","choice","chosen_val","chosen_gal","chosen_art","chosen_stim","unchosen_val","unchosen_gal","unchosen_art","unchosen_stim","chosen_val_grp","unchosen_val_grp"
"1",1,"29svyahw","learn_value","1","Cordelia","Cordelia","Mon","Mon","Monb2n.jpeg","Monb1n.jpeg",80,60,1506.84499996714,74,"Left",80,"Cordelia","Mon","Monb2n.jpeg",60,"Cordelia","Mon","Monb1n.jpeg","high","high"
"2",2,"29svyahw","learn_value","1","Cordelia","Cordelia","Mon","Mon","Mondb2.jpeg","Mondb3.jpeg",60,40,344.229999987874,74,"Left",60,"Cordelia","Mon","Mondb2.jpeg",40,"Cordelia","Mon","Mondb3.jpeg","high","high"
"3",3,"29svyahw","learn_value","1","Cordelia","Marina","Mon","Rot","Monb3n.jpeg","Rota1n.jpeg",60,20,370.174999989104,75,"Right",20,"Marina","Rot","Rota1n.jpeg",60,"Cordelia","Mon","Monb3n.jpeg","low","high"
"4",4,"29svyahw","learn_value","1","Marina","Marina","Rot","Rot","Rothb2.jpeg","Rota1n.jpeg",20,20,190.664999943692,74,"Left",20,"Marina","Rot","Rothb2.jpeg",20,"Marina","Rot","Rota1n.jpeg","low","low"
"5",5,"29svyahw","learn_value","1","Marina","Cordelia","Rot","Mon","Rothb2.jpeg","Monb2n.jpeg",20,80,1046.11500003375,75,"Right",80,"Cordelia","Mon","Monb2n.jpeg",20,"Marina","Rot","Rothb2.jpeg","high","low"
"6",6,"29svyahw","learn_value","1","Cordelia","Cordelia","Mon","Mon","Mona1n.jpeg","Monb1n.jpeg",80,60,389.719999977387,75,"Right",60,"Cordelia","Mon","Monb1n.jpeg",80,"Cordelia","Mon","Mona1n.jpeg","high","high"
"7",7,"29svyahw","learn_value","1","Marina","Marina","Rot","Rot","Rota1n.jpeg","Rotb1n.jpeg",20,40,560.754999984056,74,"Left",20,"Marina","Rot","Rota1n.jpeg",40,"Marina","Rot","Rotb1n.jpeg","low","low"
"8",8,"29svyahw","learn_value","1","Benedict","Marina","Roh","Rot","Roha1n.jpeg","Rotb1n.jpeg",60,40,320.565000001807,75,"Right",40,"Marina","Rot","Rotb1n.jpeg",60,"Benedict","Roh","Roha1n.jpeg","low","medium"
"9",9,"29svyahw","learn_value","1","Cordelia","Cordelia","Mon","Mon","Monb3n.jpeg","Monb1n.jpeg",60,60,287.5800000038,75,"Right",60,"Cordelia","Mon","Monb1n.jpeg",60,"Cordelia","Mon","Monb3n.jpeg","high","high"
"10",10,"29svyahw","learn_value","1","Cordelia","Cordelia","Mon","Mon","Mondb2.jpeg","Monb2n.jpeg",60,80,320.100000011735,75,"Right",80,"Cordelia","Mon","Monb2n.jpeg",60,"Cordelia","Mon","Mondb2.jpeg","high","high"
"11",11,"29svyahw","learn_value","1","Cordelia","Benedict","Mon","Roh","Monb2n.jpeg","Rohla2.jpeg",80,20,497.964999987744,75,"Right",20,"Benedict","Roh","Rohla2.jpeg",80,"Cordelia","Mon","Monb2n.jpeg","medium","high"
"12",12,"29svyahw","learn_value","1","Cordelia","Cordelia","Mon","Mon","Monb3n.jpeg","Monb2n.jpeg",60,80,465.099999972153,74,"Left",60,"Cordelia","Mon","Monb3n.jpeg",80,"Cordelia","Mon","Monb2n.jpeg","high","high"
"13",13,"29svyahw","learn_value","1","Cordelia","Marina","Mon","Rot","Monb1n.jpeg","Rothb2.jpeg",60,20,2893.28999997815,75,"Right",20,"Marina","Rot","Rothb2.jpeg",60,"Cordelia","Mon","Monb1n.jpeg","low","high"
"14",14,"29svyahw","learn_value","1","Benedict","Benedict","Roh","Roh","Rohb3n.jpeg","Rohla1.jpeg",60,60,1886.1700000125,75,"Right",60,"Benedict","Roh","Rohla1.jpeg",60,"Benedict","Roh","Rohb3n.jpeg","medium","medium"
"15",15,"29svyahw","learn_value","1","Benedict","Benedict","Roh","Roh","Rohb3n.jpeg","Rohla2.jpeg",60,20,NA,NA,NA,NA,NA,NA,NA,NA,NA,NA,NA,NA,NA
"16",16,"29svyahw","learn_value","1","Cordelia","Cordelia","Mon","Mon","Monb2n.jpeg","Mondb3.jpeg",80,40,268.130000040401,74,"Left",80,"Cordelia","Mon","Monb2n.jpeg",40,"Cordelia","Mon","Mondb3.jpeg","high","high"
"17",17,"29svyahw","learn_value","1","Marina","Cordelia","Rot","Mon","Rota1n.jpeg","Mondb2.jpeg",20,60,300.14000000665,75,"Right",60,"Cordelia","Mon","Mondb2.jpeg",20,"Marina","Rot","Rota1n.jpeg","high","low"
"18",18,"29svyahw","learn_value","1","Benedict","Benedict","Roh","Roh","Rohla2.jpeg","Roha1n.jpeg",20,60,316.029999987222,74,"Left",20,"Benedict","Roh","Rohla2.jpeg",60,"Benedict","Roh","Roha1n.jpeg","medium","medium"
"19",19,"29svyahw","learn_value","1","Cordelia","Cordelia","Mon","Mon","Mona1n.jpeg","Monb2n.jpeg",80,80,315.835000015795,75,"Right",80,"Cordelia","Mon","Monb2n.jpeg",80,"Cordelia","Mon","Mona1n.jpeg","high","high"
"20",20,"29svyahw","learn_value","1","Marina","Marina","Rot","Rot","Rothb2.jpeg","Rotb2n.jpeg",20,40,176.115000038408,75,"Right",40,"Marina","Rot","Rotb2n.jpeg",20,"Marina","Rot","Rothb2.jpeg","low","low"
"21",21,"29svyahw","learn_value","1","Marina","Cordelia","Rot","Mon","Rotb1n.jpeg","Mona1n.jpeg",40,80,377.389999979641,74,"Left",40,"Marina","Rot","Rotb1n.jpeg",80,"Cordelia","Mon","Mona1n.jpeg","low","high"
"22",22,"29svyahw","learn_value","1","Marina","Marina","Rot","Rot","Rota1n.jpeg","Rotb2n.jpeg",20,40,299.014999996871,75,"Right",40,"Marina","Rot","Rotb2n.jpeg",20,"Marina","Rot","Rota1n.jpeg","low","low"
"23",23,"29svyahw","learn_value","1","Benedict","Benedict","Roh","Roh","Roha1n.jpeg","Rohla1.jpeg",60,60,256.385000015143,74,"Left",60,"Benedict","Roh","Roha1n.jpeg",60,"Benedict","Roh","Rohla1.jpeg","medium","medium"
"24",24,"29svyahw","learn_value","1","Benedict","Benedict","Roh","Roh","Rohla1.jpeg","Rohlb2.jpeg",60,20,358.635000011418,74,"Left",60,"Benedict","Roh","Rohla1.jpeg",20,"Benedict","Roh","Rohlb2.jpeg","medium","medium"
"25",25,"29svyahw","learn_value","1","Cordelia","Cordelia","Mon","Mon","Monb3n.jpeg","Mona1n.jpeg",60,80,413.850000011735,74,"Left",60,"Cordelia","Mon","Monb3n.jpeg",80,"Cordelia","Mon","Mona1n.jpeg","high","high"
"26",26,"29svyahw","learn_value","1","Benedict","Benedict","Roh","Roh","Roha1n.jpeg","Rohla3.jpeg",60,40,346.149999997579,74,"Left",60,"Benedict","Roh","Roha1n.jpeg",40,"Benedict","Roh","Rohla3.jpeg","medium","medium"
"27",27,"29svyahw","learn_value","1","Cordelia","Cordelia","Mon","Mon","Mondb2.jpeg","Monb3n.jpeg",60,60,214.299999992363,74,"Left",60,"Cordelia","Mon","Mondb2.jpeg",60,"Cordelia","Mon","Monb3n.jpeg","high","high"
"28",28,"29svyahw","learn_value","1","Cordelia","Benedict","Mon","Roh","Mondb3.jpeg","Rohla3.jpeg",40,40,324.550000019372,74,"Left",40,"Cordelia","Mon","Mondb3.jpeg",40,"Benedict","Roh","Rohla3.jpeg","high","medium"
"29",29,"29svyahw","learn_value","1","Cordelia","Marina","Mon","Rot","Mondb3.jpeg","Rotb1n.jpeg",40,40,466.019999992568,75,"Right",40,"Marina","Rot","Rotb1n.jpeg",40,"Cordelia","Mon","Mondb3.jpeg","low","high"
"30",30,"29svyahw","learn_value","1","Cordelia","Cordelia","Mon","Mon","Mondb3.jpeg","Monb1n.jpeg",40,60,301.020000013523,74,"Left",40,"Cordelia","Mon","Mondb3.jpeg",60,"Cordelia","Mon","Monb1n.jpeg","high","high"
"31",31,"29svyahw","learn_value","1","Marina","Cordelia","Rot","Mon","Rotha3.jpeg","Monb3n.jpeg",0,60,401.01999999024,75,"Right",60,"Cordelia","Mon","Monb3n.jpeg",0,"Marina","Rot","Rotha3.jpeg","high","low"
"32",32,"29svyahw","learn_value","1","Marina","Cordelia","Rot","Mon","Rothb2.jpeg","Mona1n.jpeg",20,80,326.390000001993,75,"Right",80,"Cordelia","Mon","Mona1n.jpeg",20,"Marina","Rot","Rothb2.jpeg","high","low"
"33",33,"29svyahw","learn_value","1","Cordelia","Benedict","Mon","Roh","Monb2n.jpeg","Rohla1.jpeg",80,60,289.430000004359,75,"Right",60,"Benedict","Roh","Rohla1.jpeg",80,"Cordelia","Mon","Monb2n.jpeg","medium","high"
"34",34,"29svyahw","learn_value","1","Benedict","Benedict","Roh","Roh","Rohb3n.jpeg","Roha1n.jpeg",60,60,331.865000014659,74,"Left",60,"Benedict","Roh","Rohb3n.jpeg",60,"Benedict","Roh","Roha1n.jpeg","medium","medium"
"35",35,"29svyahw","learn_value","1","Marina","Benedict","Rot","Roh","Rotha3.jpeg","Roha1n.jpeg",0,60,398.534999985714,74,"Left",0,"Marina","Rot","Rotha3.jpeg",60,"Benedict","Roh","Roha1n.jpeg","low","medium"
"36",36,"29svyahw","learn_value","1","Marina","Benedict","Rot","Roh","Rothb2.jpeg","Rohb3n.jpeg",20,60,268.175000033807,75,"Right",60,"Benedict","Roh","Rohb3n.jpeg",20,"Marina","Rot","Rothb2.jpeg","medium","low"
"37",37,"29svyahw","learn_value","1","Benedict","Benedict","Roh","Roh","Rohla3.jpeg","Rohlb2.jpeg",40,20,674.880000005942,75,"Right",20,"Benedict","Roh","Rohlb2.jpeg",40,"Benedict","Roh","Rohla3.jpeg","medium","medium"
"38",38,"29svyahw","learn_value","1","Marina","Marina","Rot","Rot","Rotha3.jpeg","Rotb2n.jpeg",0,40,475.42999999132,74,"Left",0,"Marina","Rot","Rotha3.jpeg",40,"Marina","Rot","Rotb2n.jpeg","low","low"
"39",39,"29svyahw","learn_value","1","Cordelia","Cordelia","Mon","Mon","Mondb3.jpeg","Monb3n.jpeg",40,60,336.379999993369,75,"Right",60,"Cordelia","Mon","Monb3n.jpeg",40,"Cordelia","Mon","Mondb3.jpeg","high","high"
"40",40,"29svyahw","learn_value","1","Benedict","Benedict","Roh","Roh","Rohla1.jpeg","Rohla2.jpeg",60,20,419.094999961089,75,"Right",20,"Benedict","Roh","Rohla2.jpeg",60,"Benedict","Roh","Rohla1.jpeg","medium","medium"
"41",41,"29svyahw","learn_value","1","Marina","Cordelia","Rot","Mon","Rotha3.jpeg","Monb2n.jpeg",0,80,664.129999990109,75,"Right",80,"Cordelia","Mon","Monb2n.jpeg",0,"Marina","Rot","Rotha3.jpeg","high","low"
"42",42,"29svyahw","learn_value","1","Marina","Benedict","Rot","Roh","Rotb2n.jpeg","Rohb3n.jpeg",40,60,550.814999965951,75,"Right",60,"Benedict","Roh","Rohb3n.jpeg",40,"Marina","Rot","Rotb2n.jpeg","medium","low"
"43",43,"29svyahw","learn_value","1","Marina","Marina","Rot","Rot","Rothb2.jpeg","Rotha3.jpeg",20,0,470.435000024736,75,"Right",0,"Marina","Rot","Rotha3.jpeg",20,"Marina","Rot","Rothb2.jpeg","low","low"
"44",44,"29svyahw","learn_value","1","Marina","Benedict","Rot","Roh","Rotha3.jpeg","Rohlb2.jpeg",0,20,325.754999998026,74,"Left",0,"Marina","Rot","Rotha3.jpeg",20,"Benedict","Roh","Rohlb2.jpeg","low","medium"
"45",45,"29svyahw","learn_value","1","Benedict","Cordelia","Roh","Mon","Rohla3.jpeg","Monb2n.jpeg",40,80,227.075000002515,75,"Right",80,"Cordelia","Mon","Monb2n.jpeg",40,"Benedict","Roh","Rohla3.jpeg","high","medium"
"46",46,"29svyahw","learn_value","1","Benedict","Cordelia","Roh","Mon","Rohla1.jpeg","Mondb3.jpeg",60,40,495.170000009239,75,"Right",40,"Cordelia","Mon","Mondb3.jpeg",60,"Benedict","Roh","Rohla1.jpeg","high","medium"
"47",47,"29svyahw","learn_value","2","Benedict","Cordelia","Roh","Mon","Rohla3.jpeg","Monb2n.jpeg",40,80,925.325000018347,74,"Left",40,"Benedict","Roh","Rohla3.jpeg",80,"Cordelia","Mon","Monb2n.jpeg","medium","high"
"48",48,"29svyahw","learn_value","2","Cordelia","Marina","Mon","Rot","Monb2n.jpeg","Rotb1n.jpeg",80,40,86.8999999947846,75,"Right",40,"Marina","Rot","Rotb1n.jpeg",80,"Cordelia","Mon","Monb2n.jpeg","low","high"
"49",49,"29svyahw","learn_value","2","Benedict","Benedict","Roh","Roh","Rohlb2.jpeg","Roha1n.jpeg",20,60,340.40000004461,74,"Left",20,"Benedict","Roh","Rohlb2.jpeg",60,"Benedict","Roh","Roha1n.jpeg","medium","medium"
"50",50,"29svyahw","learn_value","2","Cordelia","Benedict","Mon","Roh","Monb2n.jpeg","Rohb3n.jpeg",80,60,679.484999971464,75,"Right",60,"Benedict","Roh","Rohb3n.jpeg",80,"Cordelia","Mon","Monb2n.jpeg","medium","high"
"51",51,"29svyahw","learn_value","2","Marina","Benedict","Rot","Roh","Rotha3.jpeg","Rohla3.jpeg",0,40,70.9050000295974,75,"Right",40,"Benedict","Roh","Rohla3.jpeg",0,"Marina","Rot","Rotha3.jpeg","medium","low"
"52",52,"29svyahw","learn_value","2","Cordelia","Cordelia","Mon","Mon","Mondb2.jpeg","Monb1n.jpeg",60,60,409.805000002962,74,"Left",60,"Cordelia","Mon","Mondb2.jpeg",60,"Cordelia","Mon","Monb1n.jpeg","high","high"
"53",53,"29svyahw","learn_value","2","Benedict","Marina","Roh","Rot","Rohlb2.jpeg","Rotb1n.jpeg",20,40,272.150000033434,75,"Right",40,"Marina","Rot","Rotb1n.jpeg",20,"Benedict","Roh","Rohlb2.jpeg","low","medium"
"54",54,"29svyahw","learn_value","2","Marina","Marina","Rot","Rot","Rota1n.jpeg","Rotha3.jpeg",20,0,434.23499999335,74,"Left",20,"Marina","Rot","Rota1n.jpeg",0,"Marina","Rot","Rotha3.jpeg","low","low"
"55",55,"29svyahw","learn_value","2","Marina","Marina","Rot","Rot","Rota3n.jpeg","Rotb2n.jpeg",0,40,307.504999975208,75,"Right",40,"Marina","Rot","Rotb2n.jpeg",0,"Marina","Rot","Rota3n.jpeg","low","low"
"56",56,"29svyahw","learn_value","2","Benedict","Cordelia","Roh","Mon","Rohla1.jpeg","Mondb2.jpeg",60,60,635.76000003377,74,"Left",60,"Benedict","Roh","Rohla1.jpeg",60,"Cordelia","Mon","Mondb2.jpeg","medium","high"
"57",57,"29svyahw","learn_value","2","Marina","Cordelia","Rot","Mon","Rota1n.jpeg","Monb2n.jpeg",20,80,1001.42000004416,75,"Right",80,"Cordelia","Mon","Monb2n.jpeg",20,"Marina","Rot","Rota1n.jpeg","high","low"
"58",58,"29svyahw","learn_value","2","Cordelia","Marina","Mon","Rot","Mondb3.jpeg","Rotha3.jpeg",40,0,462.059999990743,75,"Right",0,"Marina","Rot","Rotha3.jpeg",40,"Cordelia","Mon","Mondb3.jpeg","low","high"
"59",59,"29svyahw","learn_value","2","Marina","Benedict","Rot","Roh","Rothb2.jpeg","Roha1n.jpeg",20,60,672.534999961499,74,"Left",20,"Marina","Rot","Rothb2.jpeg",60,"Benedict","Roh","Roha1n.jpeg","low","medium"
"60",60,"29svyahw","learn_value","2","Cordelia","Benedict","Mon","Roh","Monb1n.jpeg","Rohla2.jpeg",60,20,526.219999999739,74,"Left",60,"Cordelia","Mon","Monb1n.jpeg",20,"Benedict","Roh","Rohla2.jpeg","high","medium"
"61",61,"29svyahw","learn_value","2","Marina","Marina","Rot","Rot","Rothb2.jpeg","Rota3n.jpeg",20,0,536.660000041593,74,"Left",20,"Marina","Rot","Rothb2.jpeg",0,"Marina","Rot","Rota3n.jpeg","low","low"
"62",62,"29svyahw","learn_value","2","Cordelia","Cordelia","Mon","Mon","Mona1n.jpeg","Mondb3.jpeg",80,40,495.189999986906,75,"Right",40,"Cordelia","Mon","Mondb3.jpeg",80,"Cordelia","Mon","Mona1n.jpeg","high","high"
"63",63,"29svyahw","learn_value","2","Benedict","Marina","Roh","Rot","Roha1n.jpeg","Rothb2.jpeg",60,20,414.900000032503,74,"Left",60,"Benedict","Roh","Roha1n.jpeg",20,"Marina","Rot","Rothb2.jpeg","medium","low"
"64",64,"29svyahw","learn_value","2","Marina","Cordelia","Rot","Mon","Rota3n.jpeg","Monb2n.jpeg",0,80,46.6149999992922,75,"Right",80,"Cordelia","Mon","Monb2n.jpeg",0,"Marina","Rot","Rota3n.jpeg","high","low"
"65",65,"29svyahw","learn_value","2","Benedict","Benedict","Roh","Roh","Rohla3.jpeg","Rohb3n.jpeg",40,60,36.1949999933131,75,"Right",60,"Benedict","Roh","Rohb3n.jpeg",40,"Benedict","Roh","Rohla3.jpeg","medium","medium"
"66",66,"29svyahw","learn_value","2","Cordelia","Cordelia","Mon","Mon","Mondb2.jpeg","Mona1n.jpeg",60,80,571.9950000057,74,"Left",60,"Cordelia","Mon","Mondb2.jpeg",80,"Cordelia","Mon","Mona1n.jpeg","high","high"
"67",67,"29svyahw","learn_value","2","Marina","Marina","Rot","Rot","Rota3n.jpeg","Rota1n.jpeg",0,20,274.235000018962,74,"Left",0,"Marina","Rot","Rota3n.jpeg",20,"Marina","Rot","Rota1n.jpeg","low","low"
"68",68,"29svyahw","learn_value","2","Benedict","Cordelia","Roh","Mon","Rohla1.jpeg","Mona1n.jpeg",60,80,285.430000047199,75,"Right",80,"Cordelia","Mon","Mona1n.jpeg",60,"Benedict","Roh","Rohla1.jpeg","high","medium"
"69",69,"29svyahw","learn_value","2","Marina","Marina","Rot","Rot","Rota3n.jpeg","Rotha3.jpeg",0,0,467.110000026878,75,"Right",0,"Marina","Rot","Rotha3.jpeg",0,"Marina","Rot","Rota3n.jpeg","low","low"
"70",70,"29svyahw","learn_value","2","Marina","Marina","Rot","Rot","Rotb1n.jpeg","Rothb2.jpeg",40,20,505.899999989197,74,"Left",40,"Marina","Rot","Rotb1n.jpeg",20,"Marina","Rot","Rothb2.jpeg","low","low"
"71",71,"29svyahw","learn_value","2","Benedict","Benedict","Roh","Roh","Rohlb2.jpeg","Rohla2.jpeg",20,20,298.405000008643,75,"Right",20,"Benedict","Roh","Rohla2.jpeg",20,"Benedict","Roh","Rohlb2.jpeg","medium","medium"
"72",72,"29svyahw","learn_value","2","Marina","Cordelia","Rot","Mon","Rotb2n.jpeg","Monb1n.jpeg",40,60,295.105000026524,74,"Left",40,"Marina","Rot","Rotb2n.jpeg",60,"Cordelia","Mon","Monb1n.jpeg","low","high"
"73",73,"29svyahw","learn_value","2","Benedict","Benedict","Roh","Roh","Rohb3n.jpeg","Rohlb2.jpeg",60,20,365.340000018477,75,"Right",20,"Benedict","Roh","Rohlb2.jpeg",60,"Benedict","Roh","Rohb3n.jpeg","medium","medium"
"74",74,"29svyahw","learn_value","2","Benedict","Benedict","Roh","Roh","Rohla3.jpeg","Rohla1.jpeg",40,60,454.92499996908,74,"Left",40,"Benedict","Roh","Rohla3.jpeg",60,"Benedict","Roh","Rohla1.jpeg","medium","medium"
"75",75,"29svyahw","learn_value","2","Marina","Marina","Rot","Rot","Rotb1n.jpeg","Rotb2n.jpeg",40,40,561.065000016242,74,"Left",40,"Marina","Rot","Rotb1n.jpeg",40,"Marina","Rot","Rotb2n.jpeg","low","low"
"76",76,"29svyahw","learn_value","2","Benedict","Marina","Roh","Rot","Rohb3n.jpeg","Rota1n.jpeg",60,20,495.165000029374,75,"Right",20,"Marina","Rot","Rota1n.jpeg",60,"Benedict","Roh","Rohb3n.jpeg","low","medium"
"77",77,"29svyahw","learn_value","2","Cordelia","Benedict","Mon","Roh","Mondb2.jpeg","Rohlb2.jpeg",60,20,527.240000024904,74,"Left",60,"Cordelia","Mon","Mondb2.jpeg",20,"Benedict","Roh","Rohlb2.jpeg","high","medium"
"78",78,"29svyahw","learn_value","2","Benedict","Cordelia","Roh","Mon","Rohlb2.jpeg","Monb3n.jpeg",20,60,414.464999979828,74,"Left",20,"Benedict","Roh","Rohlb2.jpeg",60,"Cordelia","Mon","Monb3n.jpeg","medium","high"
"79",79,"29svyahw","learn_value","2","Benedict","Marina","Roh","Rot","Rohlb2.jpeg","Rota1n.jpeg",20,20,386.969999992289,75,"Right",20,"Marina","Rot","Rota1n.jpeg",20,"Benedict","Roh","Rohlb2.jpeg","low","medium"
"80",80,"29svyahw","learn_value","2","Benedict","Marina","Roh","Rot","Rohla2.jpeg","Rota3n.jpeg",20,0,399.169999989681,74,"Left",20,"Benedict","Roh","Rohla2.jpeg",0,"Marina","Rot","Rota3n.jpeg","medium","low"
"81",81,"29svyahw","learn_value","2","Benedict","Cordelia","Roh","Mon","Rohla1.jpeg","Monb1n.jpeg",60,60,76.755000045523,74,"Left",60,"Benedict","Roh","Rohla1.jpeg",60,"Cordelia","Mon","Monb1n.jpeg","medium","high"
"82",82,"29svyahw","learn_value","2","Cordelia","Benedict","Mon","Roh","Monb3n.jpeg","Rohb3n.jpeg",60,60,405.104999954347,74,"Left",60,"Cordelia","Mon","Monb3n.jpeg",60,"Benedict","Roh","Rohb3n.jpeg","high","medium"
"83",83,"29svyahw","learn_value","2","Marina","Cordelia","Rot","Mon","Rotb1n.jpeg","Mondb2.jpeg",40,60,715.534999966621,75,"Right",60,"Cordelia","Mon","Mondb2.jpeg",40,"Marina","Rot","Rotb1n.jpeg","high","low"
"84",84,"29svyahw","learn_value","2","Benedict","Marina","Roh","Rot","Rohla2.jpeg","Rotb1n.jpeg",20,40,1180.85499998415,75,"Right",40,"Marina","Rot","Rotb1n.jpeg",20,"Benedict","Roh","Rohla2.jpeg","low","medium"
"85",85,"29svyahw","learn_value","2","Marina","Marina","Rot","Rot","Rota3n.jpeg","Rotb1n.jpeg",0,40,307.864999980666,74,"Left",0,"Marina","Rot","Rota3n.jpeg",40,"Marina","Rot","Rotb1n.jpeg","low","low"
"86",86,"29svyahw","learn_value","2","Benedict","Benedict","Roh","Roh","Rohla3.jpeg","Rohla2.jpeg",40,20,273.095000011381,75,"Right",20,"Benedict","Roh","Rohla2.jpeg",40,"Benedict","Roh","Rohla3.jpeg","medium","medium"
"87",87,"29svyahw","learn_value","2","Marina","Marina","Rot","Rot","Rotb1n.jpeg","Rotha3.jpeg",40,0,312.449999968521,74,"Left",40,"Marina","Rot","Rotb1n.jpeg",0,"Marina","Rot","Rotha3.jpeg","low","low"
"88",88,"29svyahw","learn_value","2","Benedict","Cordelia","Roh","Mon","Roha1n.jpeg","Mona1n.jpeg",60,80,284.295000019483,74,"Left",60,"Benedict","Roh","Roha1n.jpeg",80,"Cordelia","Mon","Mona1n.jpeg","medium","high"
"89",89,"29svyahw","learn_value","2","Marina","Benedict","Rot","Roh","Rotb1n.jpeg","Rohla3.jpeg",40,40,300.430000002962,74,"Left",40,"Marina","Rot","Rotb1n.jpeg",40,"Benedict","Roh","Rohla3.jpeg","low","medium"
"90",90,"29svyahw","learn_value","2","Benedict","Marina","Roh","Rot","Rohla2.jpeg","Rota1n.jpeg",20,20,262.009999947622,74,"Left",20,"Benedict","Roh","Rohla2.jpeg",20,"Marina","Rot","Rota1n.jpeg","medium","low"
"91",1,"ah0hxqyc","learn_value","1","Benedict","Benedict","Cli","Cli","Clia2n.jpeg","Clib1n.jpeg",20,20,1639,75,"Right",20,"Benedict","Cli","Clib1n.jpeg",20,"Benedict","Cli","Clia2n.jpeg","low","low"
"92",2,"ah0hxqyc","learn_value","1","Marina","Marina","Roh","Roh","Rohla2.jpeg","Roha1n.jpeg",40,80,1388,74,"Left",40,"Marina","Roh","Rohla2.jpeg",80,"Marina","Roh","Roha1n.jpeg","high","high"
"93",3,"ah0hxqyc","learn_value","1","Benedict","Marina","Cli","Roh","Clifa1.jpeg","Rohb3n.jpeg",40,80,1479,75,"Right",80,"Marina","Roh","Rohb3n.jpeg",40,"Benedict","Cli","Clifa1.jpeg","high","low"
"94",4,"ah0hxqyc","learn_value","1","Cordelia","Cordelia","Dek","Dek","Deka2n.jpeg","Dekoa1.jpeg",40,60,1589,74,"Left",40,"Cordelia","Dek","Deka2n.jpeg",60,"Cordelia","Dek","Dekoa1.jpeg","medium","medium"
"95",5,"ah0hxqyc","learn_value","1","Cordelia","Cordelia","Dek","Dek","Deka1n.jpeg","Dekob3.jpeg",20,20,1327,75,"Right",20,"Cordelia","Dek","Dekob3.jpeg",20,"Cordelia","Dek","Deka1n.jpeg","medium","medium"
"96",6,"ah0hxqyc","learn_value","1","Benedict","Benedict","Cli","Cli","Clifa2.jpeg","Clia2n.jpeg",0,20,1420,74,"Left",0,"Benedict","Cli","Clifa2.jpeg",20,"Benedict","Cli","Clia2n.jpeg","low","low"
"97",7,"ah0hxqyc","learn_value","1","Cordelia","Marina","Dek","Roh","Dekob3.jpeg","Rohb3n.jpeg",20,80,1824,75,"Right",80,"Marina","Roh","Rohb3n.jpeg",20,"Cordelia","Dek","Dekob3.jpeg","high","medium"
"98",8,"ah0hxqyc","learn_value","1","Benedict","Benedict","Cli","Cli","Clifa1.jpeg","Clifa2.jpeg",40,0,1467,74,"Left",40,"Benedict","Cli","Clifa1.jpeg",0,"Benedict","Cli","Clifa2.jpeg","low","low"
"99",9,"ah0hxqyc","learn_value","1","Marina","Cordelia","Roh","Dek","Rohla3.jpeg","Dekoa1.jpeg",60,60,1800,75,"Right",60,"Cordelia","Dek","Dekoa1.jpeg",60,"Marina","Roh","Rohla3.jpeg","medium","high"
"100",10,"ah0hxqyc","learn_value","1","Benedict","Marina","Cli","Roh","Clia3n.jpeg","Roha1n.jpeg",0,80,1615,75,"Right",80,"Marina","Roh","Roha1n.jpeg",0,"Benedict","Cli","Clia3n.jpeg","high","low"
"101",11,"ah0hxqyc","learn_value","1","Marina","Marina","Roh","Roh","Rohla3.jpeg","Rohla1.jpeg",60,80,1749,75,"Right",80,"Marina","Roh","Rohla1.jpeg",60,"Marina","Roh","Rohla3.jpeg","high","high"
"102",12,"ah0hxqyc","learn_value","1","Benedict","Benedict","Cli","Cli","Clifa1.jpeg","Clia2n.jpeg",40,20,1446,74,"Left",40,"Benedict","Cli","Clifa1.jpeg",20,"Benedict","Cli","Clia2n.jpeg","low","low"
"103",13,"ah0hxqyc","learn_value","1","Cordelia","Benedict","Dek","Cli","Deka2n.jpeg","Clia3n.jpeg",40,0,1723,75,"Right",0,"Benedict","Cli","Clia3n.jpeg",40,"Cordelia","Dek","Deka2n.jpeg","low","medium"
"104",14,"ah0hxqyc","learn_value","1","Marina","Cordelia","Roh","Dek","Rohla3.jpeg","Deka1n.jpeg",60,20,1711,74,"Left",60,"Marina","Roh","Rohla3.jpeg",20,"Cordelia","Dek","Deka1n.jpeg","high","medium"
"105",15,"ah0hxqyc","learn_value","1","Marina","Benedict","Roh","Cli","Rohb3n.jpeg","Clia2n.jpeg",80,20,1392,74,"Left",80,"Marina","Roh","Rohb3n.jpeg",20,"Benedict","Cli","Clia2n.jpeg","high","low"
"106",16,"ah0hxqyc","learn_value","1","Marina","Marina","Roh","Roh","Roha1n.jpeg","Rohb3n.jpeg",80,80,1566,74,"Left",80,"Marina","Roh","Roha1n.jpeg",80,"Marina","Roh","Rohb3n.jpeg","high","high"
"107",17,"ah0hxqyc","learn_value","1","Benedict","Cordelia","Cli","Dek","Clifa2.jpeg","Dekob3.jpeg",0,20,1900,75,"Right",20,"Cordelia","Dek","Dekob3.jpeg",0,"Benedict","Cli","Clifa2.jpeg","medium","low"
"108",18,"ah0hxqyc","learn_value","1","Cordelia","Marina","Dek","Roh","Dekob3.jpeg","Rohla2.jpeg",20,40,1283,75,"Right",40,"Marina","Roh","Rohla2.jpeg",20,"Cordelia","Dek","Dekob3.jpeg","high","medium"
"109",19,"ah0hxqyc","learn_value","1","Benedict","Benedict","Cli","Cli","Clib1n.jpeg","Clia3n.jpeg",20,0,1584,74,"Left",20,"Benedict","Cli","Clib1n.jpeg",0,"Benedict","Cli","Clia3n.jpeg","low","low"
"110",20,"ah0hxqyc","learn_value","1","Cordelia","Benedict","Dek","Cli","Dekoa1.jpeg","Clifa1.jpeg",60,40,1817,74,"Left",60,"Cordelia","Dek","Dekoa1.jpeg",40,"Benedict","Cli","Clifa1.jpeg","medium","low"
"111",21,"ah0hxqyc","learn_value","1","Benedict","Marina","Cli","Roh","Clia2n.jpeg","Rohlb2.jpeg",20,40,1261,75,"Right",40,"Marina","Roh","Rohlb2.jpeg",20,"Benedict","Cli","Clia2n.jpeg","high","low"
"112",22,"ah0hxqyc","learn_value","1","Cordelia","Marina","Dek","Roh","Deka3n.jpeg","Rohlb2.jpeg",20,40,2002,74,"Left",20,"Cordelia","Dek","Deka3n.jpeg",40,"Marina","Roh","Rohlb2.jpeg","medium","high"
"113",23,"ah0hxqyc","learn_value","1","Marina","Marina","Roh","Roh","Rohlb2.jpeg","Rohla1.jpeg",40,80,1564,75,"Right",80,"Marina","Roh","Rohla1.jpeg",40,"Marina","Roh","Rohlb2.jpeg","high","high"
"114",24,"ah0hxqyc","learn_value","1","Cordelia","Cordelia","Dek","Dek","Deka2n.jpeg","Dekob3.jpeg",40,20,2074,75,"Right",20,"Cordelia","Dek","Dekob3.jpeg",40,"Cordelia","Dek","Deka2n.jpeg","medium","medium"
"115",25,"ah0hxqyc","learn_value","1","Cordelia","Cordelia","Dek","Dek","Deka3n.jpeg","Deka1n.jpeg",20,20,1537,75,"Right",20,"Cordelia","Dek","Deka1n.jpeg",20,"Cordelia","Dek","Deka3n.jpeg","medium","medium"
"116",26,"ah0hxqyc","learn_value","1","Cordelia","Cordelia","Dek","Dek","Deka1n.jpeg","Deka2n.jpeg",20,40,2067,75,"Right",40,"Cordelia","Dek","Deka2n.jpeg",20,"Cordelia","Dek","Deka1n.jpeg","medium","medium"
"117",27,"ah0hxqyc","learn_value","1","Marina","Marina","Roh","Roh","Rohb3n.jpeg","Rohla1.jpeg",80,80,1044,75,"Right",80,"Marina","Roh","Rohla1.jpeg",80,"Marina","Roh","Rohb3n.jpeg","high","high"
"118",28,"ah0hxqyc","learn_value","1","Benedict","Benedict","Cli","Cli","Clib3n.jpeg","Clifa2.jpeg",40,0,1516,74,"Left",40,"Benedict","Cli","Clib3n.jpeg",0,"Benedict","Cli","Clifa2.jpeg","low","low"
"119",29,"ah0hxqyc","learn_value","1","Cordelia","Cordelia","Dek","Dek","Deka1n.jpeg","Dekoa2.jpeg",20,40,1508,75,"Right",40,"Cordelia","Dek","Dekoa2.jpeg",20,"Cordelia","Dek","Deka1n.jpeg","medium","medium"
"120",30,"ah0hxqyc","learn_value","1","Benedict","Benedict","Cli","Cli","Clib3n.jpeg","Clia2n.jpeg",40,20,1881,74,"Left",40,"Benedict","Cli","Clib3n.jpeg",20,"Benedict","Cli","Clia2n.jpeg","low","low"
"121",31,"ah0hxqyc","learn_value","1","Cordelia","Cordelia","Dek","Dek","Dekoa2.jpeg","Deka2n.jpeg",40,40,1706,74,"Left",40,"Cordelia","Dek","Dekoa2.jpeg",40,"Cordelia","Dek","Deka2n.jpeg","medium","medium"
"122",32,"ah0hxqyc","learn_value","1","Benedict","Cordelia","Cli","Dek","Clia2n.jpeg","Deka1n.jpeg",20,20,1638,75,"Right",20,"Cordelia","Dek","Deka1n.jpeg",20,"Benedict","Cli","Clia2n.jpeg","medium","low"
"123",33,"ah0hxqyc","learn_value","1","Cordelia","Marina","Dek","Roh","Dekoa1.jpeg","Roha1n.jpeg",60,80,1124,75,"Right",80,"Marina","Roh","Roha1n.jpeg",60,"Cordelia","Dek","Dekoa1.jpeg","high","medium"
"124",34,"ah0hxqyc","learn_value","1","Marina","Marina","Roh","Roh","Rohb3n.jpeg","Rohla2.jpeg",80,40,1339,75,"Right",40,"Marina","Roh","Rohla2.jpeg",80,"Marina","Roh","Rohb3n.jpeg","high","high"
"125",35,"ah0hxqyc","learn_value","1","Marina","Marina","Roh","Roh","Rohb3n.jpeg","Rohlb2.jpeg",80,40,1009,75,"Right",40,"Marina","Roh","Rohlb2.jpeg",80,"Marina","Roh","Rohb3n.jpeg","high","high"
"126",36,"ah0hxqyc","learn_value","1","Marina","Cordelia","Roh","Dek","Rohb3n.jpeg","Deka1n.jpeg",80,20,1611,74,"Left",80,"Marina","Roh","Rohb3n.jpeg",20,"Cordelia","Dek","Deka1n.jpeg","high","medium"
"127",37,"ah0hxqyc","learn_value","1","Cordelia","Benedict","Dek","Cli","Dekoa2.jpeg","Clia3n.jpeg",40,0,1870,75,"Right",0,"Benedict","Cli","Clia3n.jpeg",40,"Cordelia","Dek","Dekoa2.jpeg","low","medium"
"128",38,"ah0hxqyc","learn_value","1","Marina","Benedict","Roh","Cli","Roha1n.jpeg","Clifa1.jpeg",80,40,1313,74,"Left",80,"Marina","Roh","Roha1n.jpeg",40,"Benedict","Cli","Clifa1.jpeg","high","low"
"129",39,"ah0hxqyc","learn_value","1","Cordelia","Benedict","Dek","Cli","Deka2n.jpeg","Clifa2.jpeg",40,0,1524,74,"Left",40,"Cordelia","Dek","Deka2n.jpeg",0,"Benedict","Cli","Clifa2.jpeg","medium","low"
"130",40,"ah0hxqyc","learn_value","1","Benedict","Cordelia","Cli","Dek","Clib1n.jpeg","Dekoa1.jpeg",20,60,1397,75,"Right",60,"Cordelia","Dek","Dekoa1.jpeg",20,"Benedict","Cli","Clib1n.jpeg","medium","low"
"131",41,"ah0hxqyc","learn_value","1","Cordelia","Cordelia","Dek","Dek","Dekoa2.jpeg","Dekob3.jpeg",40,20,1833,74,"Left",40,"Cordelia","Dek","Dekoa2.jpeg",20,"Cordelia","Dek","Dekob3.jpeg","medium","medium"
"132",42,"ah0hxqyc","learn_value","1","Cordelia","Cordelia","Dek","Dek","Deka3n.jpeg","Dekoa2.jpeg",20,40,2158,74,"Left",20,"Cordelia","Dek","Deka3n.jpeg",40,"Cordelia","Dek","Dekoa2.jpeg","medium","medium"
"133",43,"ah0hxqyc","learn_value","1","Marina","Benedict","Roh","Cli","Rohb3n.jpeg","Clia3n.jpeg",80,0,1782,74,"Left",80,"Marina","Roh","Rohb3n.jpeg",0,"Benedict","Cli","Clia3n.jpeg","high","low"
"134",44,"ah0hxqyc","learn_value","1","Marina","Benedict","Roh","Cli","Rohla1.jpeg","Clib1n.jpeg",80,20,1035,74,"Left",80,"Marina","Roh","Rohla1.jpeg",20,"Benedict","Cli","Clib1n.jpeg","high","low"
"135",45,"ah0hxqyc","learn_value","1","Cordelia","Benedict","Dek","Cli","Dekoa1.jpeg","Clia3n.jpeg",60,0,1357,74,"Left",60,"Cordelia","Dek","Dekoa1.jpeg",0,"Benedict","Cli","Clia3n.jpeg","medium","low"
"136",46,"ah0hxqyc","learn_value","1","Cordelia","Cordelia","Dek","Dek","Deka2n.jpeg","Deka3n.jpeg",40,20,1836,75,"Right",20,"Cordelia","Dek","Deka3n.jpeg",40,"Cordelia","Dek","Deka2n.jpeg","medium","medium"
"137",47,"ah0hxqyc","learn_value","2","Benedict","Benedict","Cli","Cli","Clib3n.jpeg","Clifa1.jpeg",40,40,1622,75,"Right",40,"Benedict","Cli","Clifa1.jpeg",40,"Benedict","Cli","Clib3n.jpeg","low","low"
"138",48,"ah0hxqyc","learn_value","2","Cordelia","Cordelia","Dek","Dek","Dekoa1.jpeg","Deka1n.jpeg",60,20,1287,74,"Left",60,"Cordelia","Dek","Dekoa1.jpeg",20,"Cordelia","Dek","Deka1n.jpeg","medium","medium"
"139",49,"ah0hxqyc","learn_value","2","Benedict","Benedict","Cli","Cli","Clia3n.jpeg","Clib3n.jpeg",0,40,1885,74,"Left",0,"Benedict","Cli","Clia3n.jpeg",40,"Benedict","Cli","Clib3n.jpeg","low","low"
"140",50,"ah0hxqyc","learn_value","2","Marina","Cordelia","Roh","Dek","Rohlb2.jpeg","Deka1n.jpeg",40,20,1350,74,"Left",40,"Marina","Roh","Rohlb2.jpeg",20,"Cordelia","Dek","Deka1n.jpeg","high","medium"
"141",51,"ah0hxqyc","learn_value","2","Benedict","Benedict","Cli","Cli","Clib1n.jpeg","Clifa2.jpeg",20,0,1466,74,"Left",20,"Benedict","Cli","Clib1n.jpeg",0,"Benedict","Cli","Clifa2.jpeg","low","low"
"142",52,"ah0hxqyc","learn_value","2","Benedict","Marina","Cli","Roh","Clib3n.jpeg","Rohla1.jpeg",40,80,1134,75,"Right",80,"Marina","Roh","Rohla1.jpeg",40,"Benedict","Cli","Clib3n.jpeg","high","low"
"143",53,"ah0hxqyc","learn_value","2","Cordelia","Cordelia","Dek","Dek","Dekoa1.jpeg","Dekoa2.jpeg",60,40,1207,74,"Left",60,"Cordelia","Dek","Dekoa1.jpeg",40,"Cordelia","Dek","Dekoa2.jpeg","medium","medium"
"144",54,"ah0hxqyc","learn_value","2","Benedict","Marina","Cli","Roh","Clib1n.jpeg","Rohla3.jpeg",20,60,1109,75,"Right",60,"Marina","Roh","Rohla3.jpeg",20,"Benedict","Cli","Clib1n.jpeg","high","low"
"145",55,"ah0hxqyc","learn_value","2","Benedict","Benedict","Cli","Cli","Clib1n.jpeg","Clifa1.jpeg",20,40,1923,74,"Left",20,"Benedict","Cli","Clib1n.jpeg",40,"Benedict","Cli","Clifa1.jpeg","low","low"
"146",56,"ah0hxqyc","learn_value","2","Benedict","Marina","Cli","Roh","Clib1n.jpeg","Rohlb2.jpeg",20,40,1080,75,"Right",40,"Marina","Roh","Rohlb2.jpeg",20,"Benedict","Cli","Clib1n.jpeg","high","low"
"147",57,"ah0hxqyc","learn_value","2","Cordelia","Benedict","Dek","Cli","Dekoa2.jpeg","Clia2n.jpeg",40,20,1360,74,"Left",40,"Cordelia","Dek","Dekoa2.jpeg",20,"Benedict","Cli","Clia2n.jpeg","medium","low"
"148",58,"ah0hxqyc","learn_value","2","Cordelia","Cordelia","Dek","Dek","Deka3n.jpeg","Dekoa1.jpeg",20,60,1291,75,"Right",60,"Cordelia","Dek","Dekoa1.jpeg",20,"Cordelia","Dek","Deka3n.jpeg","medium","medium"
"149",59,"ah0hxqyc","learn_value","2","Marina","Marina","Roh","Roh","Rohla2.jpeg","Rohla1.jpeg",40,80,885,75,"Right",80,"Marina","Roh","Rohla1.jpeg",40,"Marina","Roh","Rohla2.jpeg","high","high"
"150",60,"ah0hxqyc","learn_value","2","Benedict","Benedict","Cli","Cli","Clifa1.jpeg","Clia3n.jpeg",40,0,1205,74,"Left",40,"Benedict","Cli","Clifa1.jpeg",0,"Benedict","Cli","Clia3n.jpeg","low","low"
"151",61,"ah0hxqyc","learn_value","2","Marina","Marina","Roh","Roh","Roha1n.jpeg","Rohla1.jpeg",80,80,1811,75,"Right",80,"Marina","Roh","Rohla1.jpeg",80,"Marina","Roh","Roha1n.jpeg","high","high"
"152",62,"ah0hxqyc","learn_value","2","Marina","Marina","Roh","Roh","Rohlb2.jpeg","Rohla2.jpeg",40,40,1443,75,"Right",40,"Marina","Roh","Rohla2.jpeg",40,"Marina","Roh","Rohlb2.jpeg","high","high"
"153",63,"ah0hxqyc","learn_value","2","Marina","Cordelia","Roh","Dek","Rohb3n.jpeg","Dekoa1.jpeg",80,60,1816,75,"Right",60,"Cordelia","Dek","Dekoa1.jpeg",80,"Marina","Roh","Rohb3n.jpeg","medium","high"
"154",64,"ah0hxqyc","learn_value","2","Marina","Cordelia","Roh","Dek","Roha1n.jpeg","Deka1n.jpeg",80,20,1012,74,"Left",80,"Marina","Roh","Roha1n.jpeg",20,"Cordelia","Dek","Deka1n.jpeg","high","medium"
"155",65,"ah0hxqyc","learn_value","2","Cordelia","Benedict","Dek","Cli","Deka3n.jpeg","Clib3n.jpeg",20,40,1189,74,"Left",20,"Cordelia","Dek","Deka3n.jpeg",40,"Benedict","Cli","Clib3n.jpeg","medium","low"
"156",66,"ah0hxqyc","learn_value","2","Marina","Marina","Roh","Roh","Rohla3.jpeg","Rohlb2.jpeg",60,40,1659,74,"Left",60,"Marina","Roh","Rohla3.jpeg",40,"Marina","Roh","Rohlb2.jpeg","high","high"
"157",67,"ah0hxqyc","learn_value","2","Cordelia","Marina","Dek","Roh","Deka2n.jpeg","Rohlb2.jpeg",40,40,1664,75,"Right",40,"Marina","Roh","Rohlb2.jpeg",40,"Cordelia","Dek","Deka2n.jpeg","high","medium"
"158",68,"ah0hxqyc","learn_value","2","Cordelia","Marina","Dek","Roh","Dekoa2.jpeg","Rohla1.jpeg",40,80,924,75,"Right",80,"Marina","Roh","Rohla1.jpeg",40,"Cordelia","Dek","Dekoa2.jpeg","high","medium"
"159",69,"ah0hxqyc","learn_value","2","Marina","Cordelia","Roh","Dek","Rohla1.jpeg","Dekoa2.jpeg",80,40,975,74,"Left",80,"Marina","Roh","Rohla1.jpeg",40,"Cordelia","Dek","Dekoa2.jpeg","high","medium"
"160",70,"ah0hxqyc","learn_value","2","Benedict","Benedict","Cli","Cli","Clifa2.jpeg","Clia3n.jpeg",0,0,1624,75,"Right",0,"Benedict","Cli","Clia3n.jpeg",0,"Benedict","Cli","Clifa2.jpeg","low","low"
"161",71,"ah0hxqyc","learn_value","2","Marina","Cordelia","Roh","Dek","Rohlb2.jpeg","Deka2n.jpeg",40,40,1178,74,"Left",40,"Marina","Roh","Rohlb2.jpeg",40,"Cordelia","Dek","Deka2n.jpeg","high","medium"
"162",72,"ah0hxqyc","learn_value","2","Cordelia","Benedict","Dek","Cli","Deka1n.jpeg","Clifa2.jpeg",20,0,1078,74,"Left",20,"Cordelia","Dek","Deka1n.jpeg",0,"Benedict","Cli","Clifa2.jpeg","medium","low"
"163",73,"ah0hxqyc","learn_value","2","Cordelia","Cordelia","Dek","Dek","Dekob3.jpeg","Dekoa1.jpeg",20,60,1387,75,"Right",60,"Cordelia","Dek","Dekoa1.jpeg",20,"Cordelia","Dek","Dekob3.jpeg","medium","medium"
"164",74,"ah0hxqyc","learn_value","2","Benedict","Marina","Cli","Roh","Clib1n.jpeg","Rohla1.jpeg",20,80,1061,75,"Right",80,"Marina","Roh","Rohla1.jpeg",20,"Benedict","Cli","Clib1n.jpeg","high","low"
"165",75,"ah0hxqyc","learn_value","2","Marina","Marina","Roh","Roh","Rohlb2.jpeg","Roha1n.jpeg",40,80,910,75,"Right",80,"Marina","Roh","Roha1n.jpeg",40,"Marina","Roh","Rohlb2.jpeg","high","high"
"166",76,"ah0hxqyc","learn_value","2","Marina","Marina","Roh","Roh","Rohb3n.jpeg","Rohla3.jpeg",80,60,1210,75,"Right",60,"Marina","Roh","Rohla3.jpeg",80,"Marina","Roh","Rohb3n.jpeg","high","high"
"167",77,"ah0hxqyc","learn_value","2","Benedict","Benedict","Cli","Cli","Clia3n.jpeg","Clia2n.jpeg",0,20,1453,74,"Left",0,"Benedict","Cli","Clia3n.jpeg",20,"Benedict","Cli","Clia2n.jpeg","low","low"
"168",78,"ah0hxqyc","learn_value","2","Cordelia","Benedict","Dek","Cli","Dekob3.jpeg","Clib3n.jpeg",20,40,1446,75,"Right",40,"Benedict","Cli","Clib3n.jpeg",20,"Cordelia","Dek","Dekob3.jpeg","low","medium"
"169",79,"ah0hxqyc","learn_value","2","Marina","Marina","Roh","Roh","Rohla2.jpeg","Rohla3.jpeg",40,60,1251,75,"Right",60,"Marina","Roh","Rohla3.jpeg",40,"Marina","Roh","Rohla2.jpeg","high","high"
"170",80,"ah0hxqyc","learn_value","2","Cordelia","Cordelia","Dek","Dek","Dekob3.jpeg","Deka3n.jpeg",20,20,1506,74,"Left",20,"Cordelia","Dek","Dekob3.jpeg",20,"Cordelia","Dek","Deka3n.jpeg","medium","medium"
"171",81,"ah0hxqyc","learn_value","2","Benedict","Benedict","Cli","Cli","Clib1n.jpeg","Clib3n.jpeg",20,40,1613,74,"Left",20,"Benedict","Cli","Clib1n.jpeg",40,"Benedict","Cli","Clib3n.jpeg","low","low"
"172",82,"ah0hxqyc","learn_value","2","Benedict","Cordelia","Cli","Dek","Clifa2.jpeg","Deka1n.jpeg",0,20,1470,74,"Left",0,"Benedict","Cli","Clifa2.jpeg",20,"Cordelia","Dek","Deka1n.jpeg","low","medium"
"173",83,"ah0hxqyc","learn_value","2","Marina","Benedict","Roh","Cli","Rohlb2.jpeg","Clia2n.jpeg",40,20,2038,75,"Right",20,"Benedict","Cli","Clia2n.jpeg",40,"Marina","Roh","Rohlb2.jpeg","low","high"
"174",84,"ah0hxqyc","learn_value","2","Benedict","Cordelia","Cli","Dek","Clifa1.jpeg","Deka2n.jpeg",40,40,1279,74,"Left",40,"Benedict","Cli","Clifa1.jpeg",40,"Cordelia","Dek","Deka2n.jpeg","low","medium"
"175",85,"ah0hxqyc","learn_value","2","Benedict","Marina","Cli","Roh","Clifa2.jpeg","Rohla2.jpeg",0,40,999,75,"Right",40,"Marina","Roh","Rohla2.jpeg",0,"Benedict","Cli","Clifa2.jpeg","high","low"
"176",86,"ah0hxqyc","learn_value","2","Marina","Cordelia","Roh","Dek","Rohla1.jpeg","Deka2n.jpeg",80,40,736,74,"Left",80,"Marina","Roh","Rohla1.jpeg",40,"Cordelia","Dek","Deka2n.jpeg","high","medium"
"177",87,"ah0hxqyc","learn_value","2","Benedict","Marina","Cli","Roh","Clib3n.jpeg","Rohla3.jpeg",40,60,986,75,"Right",60,"Marina","Roh","Rohla3.jpeg",40,"Benedict","Cli","Clib3n.jpeg","high","low"
"178",88,"ah0hxqyc","learn_value","2","Marina","Benedict","Roh","Cli","Rohlb2.jpeg","Clib3n.jpeg",40,40,1328,74,"Left",40,"Marina","Roh","Rohlb2.jpeg",40,"Benedict","Cli","Clib3n.jpeg","high","low"
"179",89,"ah0hxqyc","learn_value","2","Cordelia","Benedict","Dek","Cli","Deka1n.jpeg","Clifa1.jpeg",20,40,1406,74,"Left",20,"Cordelia","Dek","Deka1n.jpeg",40,"Benedict","Cli","Clifa1.jpeg","medium","low"
"180",90,"ah0hxqyc","learn_value","2","Marina","Marina","Roh","Roh","Rohla3.jpeg","Roha1n.jpeg",60,80,790,75,"Right",80,"Marina","Roh","Roha1n.jpeg",60,"Marina","Roh","Rohla3.jpeg","high","high"
"181",1,"rhbprfp2","learn_value","1","Marina","Benedict","Dek","Roh","Deka3n.jpeg","Rohla3.jpeg",40,20,1376.68500002474,74,"Left",40,"Marina","Dek","Deka3n.jpeg",20,"Benedict","Roh","Rohla3.jpeg","high","low"
"182",2,"rhbprfp2","learn_value","1","Benedict","Benedict","Roh","Roh","Rohla1.jpeg","Rohla3.jpeg",40,20,1522.01999997487,75,"Right",20,"Benedict","Roh","Rohla3.jpeg",40,"Benedict","Roh","Rohla1.jpeg","low","low"
"183",3,"rhbprfp2","learn_value","1","Benedict","Benedict","Roh","Roh","Rohlb2.jpeg","Roha1n.jpeg",0,40,1367.3650000128,74,"Left",0,"Benedict","Roh","Rohlb2.jpeg",40,"Benedict","Roh","Roha1n.jpeg","low","low"
"184",4,"rhbprfp2","learn_value","1","Benedict","Benedict","Roh","Roh","Rohla1.jpeg","Rohlb2.jpeg",40,0,749.524999991991,74,"Left",40,"Benedict","Roh","Rohla1.jpeg",0,"Benedict","Roh","Rohlb2.jpeg","low","low"
"185",5,"rhbprfp2","learn_value","1","Cordelia","Cordelia","Mon","Mon","Mondb3.jpeg","Mona1n.jpeg",20,60,721.26500000013,75,"Right",60,"Cordelia","Mon","Mona1n.jpeg",20,"Cordelia","Mon","Mondb3.jpeg","medium","medium"
"186",6,"rhbprfp2","learn_value","1","Benedict","Benedict","Roh","Roh","Rohla3.jpeg","Roha1n.jpeg",20,40,726.555000001099,75,"Right",40,"Benedict","Roh","Roha1n.jpeg",20,"Benedict","Roh","Rohla3.jpeg","low","low"
"187",7,"rhbprfp2","learn_value","1","Cordelia","Cordelia","Mon","Mon","Mona1n.jpeg","Monb2n.jpeg",60,60,743.805000034627,74,"Left",60,"Cordelia","Mon","Mona1n.jpeg",60,"Cordelia","Mon","Monb2n.jpeg","medium","medium"
"188",8,"rhbprfp2","learn_value","1","Cordelia","Marina","Mon","Dek","Monb1n.jpeg","Dekoa2.jpeg",40,60,821.119999978691,75,"Right",60,"Marina","Dek","Dekoa2.jpeg",40,"Cordelia","Mon","Monb1n.jpeg","high","medium"
"189",9,"rhbprfp2","learn_value","1","Cordelia","Marina","Mon","Dek","Monb3n.jpeg","Deka1n.jpeg",40,40,577.489999996033,75,"Right",40,"Marina","Dek","Deka1n.jpeg",40,"Cordelia","Mon","Monb3n.jpeg","high","medium"
"190",10,"rhbprfp2","learn_value","1","Benedict","Benedict","Roh","Roh","Rohla3.jpeg","Rohla2.jpeg",20,0,538.919999962673,75,"Right",0,"Benedict","Roh","Rohla2.jpeg",20,"Benedict","Roh","Rohla3.jpeg","low","low"
"191",11,"rhbprfp2","learn_value","1","Cordelia","Cordelia","Mon","Mon","Monb1n.jpeg","Mona1n.jpeg",40,60,725.914999959059,74,"Left",40,"Cordelia","Mon","Monb1n.jpeg",60,"Cordelia","Mon","Mona1n.jpeg","medium","medium"
"192",12,"rhbprfp2","learn_value","1","Marina","Marina","Dek","Dek","Deka1n.jpeg","Dekoa2.jpeg",40,60,583.180000016,74,"Left",40,"Marina","Dek","Deka1n.jpeg",60,"Marina","Dek","Dekoa2.jpeg","high","high"
"193",13,"rhbprfp2","learn_value","1","Marina","Benedict","Dek","Roh","Deka1n.jpeg","Rohlb2.jpeg",40,0,591.294999991078,74,"Left",40,"Marina","Dek","Deka1n.jpeg",0,"Benedict","Roh","Rohlb2.jpeg","high","low"
"194",14,"rhbprfp2","learn_value","1","Cordelia","Cordelia","Mon","Mon","Mondb2.jpeg","Mona1n.jpeg",40,60,407.680000003893,75,"Right",60,"Cordelia","Mon","Mona1n.jpeg",40,"Cordelia","Mon","Mondb2.jpeg","medium","medium"
"195",15,"rhbprfp2","learn_value","1","Benedict","Benedict","Roh","Roh","Rohla3.jpeg","Rohb3n.jpeg",20,40,685.750000004191,74,"Left",20,"Benedict","Roh","Rohla3.jpeg",40,"Benedict","Roh","Rohb3n.jpeg","low","low"
"196",16,"rhbprfp2","learn_value","1","Marina","Benedict","Dek","Roh","Dekob3.jpeg","Rohla2.jpeg",40,0,349.059999978635,74,"Left",40,"Marina","Dek","Dekob3.jpeg",0,"Benedict","Roh","Rohla2.jpeg","high","low"
"197",17,"rhbprfp2","learn_value","1","Marina","Marina","Dek","Dek","Dekoa2.jpeg","Dekoa1.jpeg",60,80,686.329999996815,75,"Right",80,"Marina","Dek","Dekoa1.jpeg",60,"Marina","Dek","Dekoa2.jpeg","high","high"
"198",18,"rhbprfp2","learn_value","1","Cordelia","Marina","Mon","Dek","Mondb2.jpeg","Dekoa2.jpeg",40,60,476.659999985714,75,"Right",60,"Marina","Dek","Dekoa2.jpeg",40,"Cordelia","Mon","Mondb2.jpeg","high","medium"
"199",19,"rhbprfp2","learn_value","1","Cordelia","Benedict","Mon","Roh","Monb2n.jpeg","Rohlb2.jpeg",60,0,694.155000033788,75,"Right",0,"Benedict","Roh","Rohlb2.jpeg",60,"Cordelia","Mon","Monb2n.jpeg","low","medium"
"200",20,"rhbprfp2","learn_value","1","Benedict","Benedict","Roh","Roh","Rohla1.jpeg","Rohb3n.jpeg",40,40,522.645000019111,75,"Right",40,"Benedict","Roh","Rohb3n.jpeg",40,"Benedict","Roh","Rohla1.jpeg","low","low"
"201",21,"rhbprfp2","learn_value","1","Benedict","Benedict","Roh","Roh","Rohla1.jpeg","Roha1n.jpeg",40,40,699.550000019372,74,"Left",40,"Benedict","Roh","Rohla1.jpeg",40,"Benedict","Roh","Roha1n.jpeg","low","low"
"202",22,"rhbprfp2","learn_value","1","Benedict","Marina","Roh","Dek","Rohlb2.jpeg","Deka1n.jpeg",0,40,428.735000023153,75,"Right",40,"Marina","Dek","Deka1n.jpeg",0,"Benedict","Roh","Rohlb2.jpeg","high","low"
"203",23,"rhbprfp2","learn_value","1","Marina","Benedict","Dek","Roh","Dekoa1.jpeg","Roha1n.jpeg",80,40,868.614999984857,74,"Left",80,"Marina","Dek","Dekoa1.jpeg",40,"Benedict","Roh","Roha1n.jpeg","high","low"
"204",24,"rhbprfp2","learn_value","1","Cordelia","Benedict","Mon","Roh","Monb3n.jpeg","Rohla2.jpeg",40,0,624.814999988303,75,"Right",0,"Benedict","Roh","Rohla2.jpeg",40,"Cordelia","Mon","Monb3n.jpeg","low","medium"
"205",25,"rhbprfp2","learn_value","1","Marina","Marina","Dek","Dek","Deka2n.jpeg","Dekob3.jpeg",60,40,691.029999987222,75,"Right",40,"Marina","Dek","Dekob3.jpeg",60,"Marina","Dek","Deka2n.jpeg","high","high"
"206",26,"rhbprfp2","learn_value","1","Cordelia","Cordelia","Mon","Mon","Monb3n.jpeg","Monb1n.jpeg",40,40,701.650000002701,75,"Right",40,"Cordelia","Mon","Monb1n.jpeg",40,"Cordelia","Mon","Monb3n.jpeg","medium","medium"
"207",27,"rhbprfp2","learn_value","1","Cordelia","Benedict","Mon","Roh","Mona1n.jpeg","Rohla1.jpeg",60,40,836.595000000671,75,"Right",40,"Benedict","Roh","Rohla1.jpeg",60,"Cordelia","Mon","Mona1n.jpeg","low","medium"
"208",28,"rhbprfp2","learn_value","1","Benedict","Marina","Roh","Dek","Rohla3.jpeg","Deka3n.jpeg",20,40,630.444999958854,75,"Right",40,"Marina","Dek","Deka3n.jpeg",20,"Benedict","Roh","Rohla3.jpeg","high","low"
"209",29,"rhbprfp2","learn_value","1","Marina","Cordelia","Dek","Mon","Dekoa1.jpeg","Monb3n.jpeg",80,40,487.629999988712,74,"Left",80,"Marina","Dek","Dekoa1.jpeg",40,"Cordelia","Mon","Monb3n.jpeg","high","medium"
"210",30,"rhbprfp2","learn_value","1","Benedict","Cordelia","Roh","Mon","Rohla1.jpeg","Monb3n.jpeg",40,40,514.425000001211,74,"Left",40,"Benedict","Roh","Rohla1.jpeg",40,"Cordelia","Mon","Monb3n.jpeg","low","medium"
"211",31,"rhbprfp2","learn_value","1","Benedict","Cordelia","Roh","Mon","Rohla3.jpeg","Monb1n.jpeg",20,40,523.370000009891,75,"Right",40,"Cordelia","Mon","Monb1n.jpeg",20,"Benedict","Roh","Rohla3.jpeg","medium","low"
"212",32,"rhbprfp2","learn_value","1","Marina","Marina","Dek","Dek","Deka1n.jpeg","Dekob3.jpeg",40,40,969.314999994822,74,"Left",40,"Marina","Dek","Deka1n.jpeg",40,"Marina","Dek","Dekob3.jpeg","high","high"
"213",33,"rhbprfp2","learn_value","1","Benedict","Benedict","Roh","Roh","Rohla3.jpeg","Rohlb2.jpeg",20,0,781.889999983832,74,"Left",20,"Benedict","Roh","Rohla3.jpeg",0,"Benedict","Roh","Rohlb2.jpeg","low","low"
"214",34,"rhbprfp2","learn_value","1","Benedict","Benedict","Roh","Roh","Rohla2.jpeg","Rohlb2.jpeg",0,0,564.624999999069,75,"Right",0,"Benedict","Roh","Rohlb2.jpeg",0,"Benedict","Roh","Rohla2.jpeg","low","low"
"215",35,"rhbprfp2","learn_value","1","Cordelia","Cordelia","Mon","Mon","Monb3n.jpeg","Monb2n.jpeg",40,60,767.394999973476,75,"Right",60,"Cordelia","Mon","Monb2n.jpeg",40,"Cordelia","Mon","Monb3n.jpeg","medium","medium"
"216",36,"rhbprfp2","learn_value","1","Cordelia","Cordelia","Mon","Mon","Monb1n.jpeg","Mondb2.jpeg",40,40,672.514999983832,74,"Left",40,"Cordelia","Mon","Monb1n.jpeg",40,"Cordelia","Mon","Mondb2.jpeg","medium","medium"
"217",37,"rhbprfp2","learn_value","1","Benedict","Cordelia","Roh","Mon","Rohlb2.jpeg","Monb2n.jpeg",0,60,605.959999957122,74,"Left",0,"Benedict","Roh","Rohlb2.jpeg",60,"Cordelia","Mon","Monb2n.jpeg","low","medium"
"218",38,"rhbprfp2","learn_value","1","Marina","Marina","Dek","Dek","Deka3n.jpeg","Deka2n.jpeg",40,60,805.805000010878,74,"Left",40,"Marina","Dek","Deka3n.jpeg",60,"Marina","Dek","Deka2n.jpeg","high","high"
"219",39,"rhbprfp2","learn_value","1","Cordelia","Cordelia","Mon","Mon","Monb3n.jpeg","Mona1n.jpeg",40,60,1108.01500000525,75,"Right",60,"Cordelia","Mon","Mona1n.jpeg",40,"Cordelia","Mon","Monb3n.jpeg","medium","medium"
"220",40,"rhbprfp2","learn_value","1","Marina","Marina","Dek","Dek","Deka1n.jpeg","Dekoa1.jpeg",40,80,601.644999987911,74,"Left",40,"Marina","Dek","Deka1n.jpeg",80,"Marina","Dek","Dekoa1.jpeg","high","high"
"221",41,"rhbprfp2","learn_value","1","Marina","Marina","Dek","Dek","Dekob3.jpeg","Deka3n.jpeg",40,40,882.824999978766,75,"Right",40,"Marina","Dek","Deka3n.jpeg",40,"Marina","Dek","Dekob3.jpeg","high","high"
"222",42,"rhbprfp2","learn_value","1","Cordelia","Marina","Mon","Dek","Monb2n.jpeg","Deka2n.jpeg",60,60,1301.97999998927,75,"Right",60,"Marina","Dek","Deka2n.jpeg",60,"Cordelia","Mon","Monb2n.jpeg","high","medium"
"223",43,"rhbprfp2","learn_value","1","Benedict","Cordelia","Roh","Mon","Rohlb2.jpeg","Mondb2.jpeg",0,40,1355.58000003221,75,"Right",40,"Cordelia","Mon","Mondb2.jpeg",0,"Benedict","Roh","Rohlb2.jpeg","medium","low"
"224",44,"rhbprfp2","learn_value","1","Cordelia","Benedict","Mon","Roh","Mona1n.jpeg","Rohb3n.jpeg",60,40,865.275000047404,74,"Left",60,"Cordelia","Mon","Mona1n.jpeg",40,"Benedict","Roh","Rohb3n.jpeg","medium","low"
"225",45,"rhbprfp2","learn_value","1","Marina","Marina","Dek","Dek","Deka3n.jpeg","Dekoa2.jpeg",40,60,791.655000008177,74,"Left",40,"Marina","Dek","Deka3n.jpeg",60,"Marina","Dek","Dekoa2.jpeg","high","high"
"226",46,"rhbprfp2","learn_value","1","Benedict","Benedict","Roh","Roh","Rohla1.jpeg","Rohla2.jpeg",40,0,833.010000002105,74,"Left",40,"Benedict","Roh","Rohla1.jpeg",0,"Benedict","Roh","Rohla2.jpeg","low","low"
"227",47,"rhbprfp2","learn_value","2","Cordelia","Marina","Mon","Dek","Mona1n.jpeg","Deka2n.jpeg",60,60,1869.53999998514,74,"Left",60,"Cordelia","Mon","Mona1n.jpeg",60,"Marina","Dek","Deka2n.jpeg","medium","high"
"228",48,"rhbprfp2","learn_value","2","Benedict","Benedict","Roh","Roh","Rohlb2.jpeg","Rohb3n.jpeg",0,40,748.234999948181,74,"Left",0,"Benedict","Roh","Rohlb2.jpeg",40,"Benedict","Roh","Rohb3n.jpeg","low","low"
"229",49,"rhbprfp2","learn_value","2","Cordelia","Cordelia","Mon","Mon","Mondb2.jpeg","Monb3n.jpeg",40,40,878.655000007711,75,"Right",40,"Cordelia","Mon","Monb3n.jpeg",40,"Cordelia","Mon","Mondb2.jpeg","medium","medium"
"230",50,"rhbprfp2","learn_value","2","Benedict","Cordelia","Roh","Mon","Roha1n.jpeg","Mona1n.jpeg",40,60,997.165000007953,75,"Right",60,"Cordelia","Mon","Mona1n.jpeg",40,"Benedict","Roh","Roha1n.jpeg","medium","low"
"231",51,"rhbprfp2","learn_value","2","Benedict","Benedict","Roh","Roh","Rohla2.jpeg","Rohb3n.jpeg",0,40,861.945000011474,75,"Right",40,"Benedict","Roh","Rohb3n.jpeg",0,"Benedict","Roh","Rohla2.jpeg","low","low"
"232",52,"rhbprfp2","learn_value","2","Benedict","Cordelia","Roh","Mon","Rohla3.jpeg","Mondb2.jpeg",20,40,1283.69999997085,75,"Right",40,"Cordelia","Mon","Mondb2.jpeg",20,"Benedict","Roh","Rohla3.jpeg","medium","low"
"233",53,"rhbprfp2","learn_value","2","Cordelia","Marina","Mon","Dek","Mona1n.jpeg","Deka3n.jpeg",60,40,965.395000006538,74,"Left",60,"Cordelia","Mon","Mona1n.jpeg",40,"Marina","Dek","Deka3n.jpeg","medium","high"
"234",54,"rhbprfp2","learn_value","2","Marina","Cordelia","Dek","Mon","Deka1n.jpeg","Monb2n.jpeg",40,60,2869.98499999754,74,"Left",40,"Marina","Dek","Deka1n.jpeg",60,"Cordelia","Mon","Monb2n.jpeg","high","medium"
"235",55,"rhbprfp2","learn_value","2","Cordelia","Cordelia","Mon","Mon","Mondb3.jpeg","Monb1n.jpeg",20,40,853.574999957345,75,"Right",40,"Cordelia","Mon","Monb1n.jpeg",20,"Cordelia","Mon","Mondb3.jpeg","medium","medium"
"236",56,"rhbprfp2","learn_value","2","Marina","Marina","Dek","Dek","Dekoa1.jpeg","Deka3n.jpeg",80,40,724.365000030957,74,"Left",80,"Marina","Dek","Dekoa1.jpeg",40,"Marina","Dek","Deka3n.jpeg","high","high"
"237",57,"rhbprfp2","learn_value","2","Marina","Marina","Dek","Dek","Deka2n.jpeg","Dekoa2.jpeg",60,60,911.144999961834,74,"Left",60,"Marina","Dek","Deka2n.jpeg",60,"Marina","Dek","Dekoa2.jpeg","high","high"
"238",58,"rhbprfp2","learn_value","2","Marina","Cordelia","Dek","Mon","Deka3n.jpeg","Mondb2.jpeg",40,40,815.684999979567,74,"Left",40,"Marina","Dek","Deka3n.jpeg",40,"Cordelia","Mon","Mondb2.jpeg","high","medium"
"239",59,"rhbprfp2","learn_value","2","Cordelia","Marina","Mon","Dek","Mona1n.jpeg","Deka3n.jpeg",60,40,1368.73000004562,74,"Left",60,"Cordelia","Mon","Mona1n.jpeg",40,"Marina","Dek","Deka3n.jpeg","medium","high"
"240",60,"rhbprfp2","learn_value","2","Benedict","Marina","Roh","Dek","Roha1n.jpeg","Deka3n.jpeg",40,40,1048.42999996617,75,"Right",40,"Marina","Dek","Deka3n.jpeg",40,"Benedict","Roh","Roha1n.jpeg","high","low"
"241",61,"rhbprfp2","learn_value","2","Marina","Cordelia","Dek","Mon","Dekob3.jpeg","Mona1n.jpeg",40,60,1171.32000002312,74,"Left",40,"Marina","Dek","Dekob3.jpeg",60,"Cordelia","Mon","Mona1n.jpeg","high","medium"
"242",62,"rhbprfp2","learn_value","2","Benedict","Benedict","Roh","Roh","Rohla2.jpeg","Roha1n.jpeg",0,40,792.305000009947,75,"Right",40,"Benedict","Roh","Roha1n.jpeg",0,"Benedict","Roh","Rohla2.jpeg","low","low"
"243",63,"rhbprfp2","learn_value","2","Marina","Marina","Dek","Dek","Deka2n.jpeg","Dekoa1.jpeg",60,80,620.525000034831,75,"Right",80,"Marina","Dek","Dekoa1.jpeg",60,"Marina","Dek","Deka2n.jpeg","high","high"
"244",64,"rhbprfp2","learn_value","2","Cordelia","Cordelia","Mon","Mon","Monb2n.jpeg","Mondb3.jpeg",60,20,749.529999971855,75,"Right",20,"Cordelia","Mon","Mondb3.jpeg",60,"Cordelia","Mon","Monb2n.jpeg","medium","medium"
"245",65,"rhbprfp2","learn_value","2","Cordelia","Cordelia","Mon","Mon","Monb3n.jpeg","Mondb3.jpeg",40,20,1055.07500004023,75,"Right",20,"Cordelia","Mon","Mondb3.jpeg",40,"Cordelia","Mon","Monb3n.jpeg","medium","medium"
"246",66,"rhbprfp2","learn_value","2","Cordelia","Cordelia","Mon","Mon","Monb2n.jpeg","Mondb2.jpeg",60,40,811.954999982845,74,"Left",60,"Cordelia","Mon","Monb2n.jpeg",40,"Cordelia","Mon","Mondb2.jpeg","medium","medium"
"247",67,"rhbprfp2","learn_value","2","Cordelia","Benedict","Mon","Roh","Monb1n.jpeg","Rohla1.jpeg",40,40,1208.71999999508,75,"Right",40,"Benedict","Roh","Rohla1.jpeg",40,"Cordelia","Mon","Monb1n.jpeg","low","medium"
"248",68,"rhbprfp2","learn_value","2","Marina","Benedict","Dek","Roh","Deka2n.jpeg","Roha1n.jpeg",60,40,734.850000008009,75,"Right",40,"Benedict","Roh","Roha1n.jpeg",60,"Marina","Dek","Deka2n.jpeg","low","high"
"249",69,"rhbprfp2","learn_value","2","Benedict","Marina","Roh","Dek","Roha1n.jpeg","Dekoa1.jpeg",40,80,507.769999967422,75,"Right",80,"Marina","Dek","Dekoa1.jpeg",40,"Benedict","Roh","Roha1n.jpeg","high","low"
"250",70,"rhbprfp2","learn_value","2","Marina","Cordelia","Dek","Mon","Deka2n.jpeg","Monb1n.jpeg",60,40,914.609999977984,74,"Left",60,"Marina","Dek","Deka2n.jpeg",40,"Cordelia","Mon","Monb1n.jpeg","high","medium"
"251",71,"rhbprfp2","learn_value","2","Marina","Benedict","Dek","Roh","Dekoa2.jpeg","Rohla1.jpeg",60,40,1051.20500002522,74,"Left",60,"Marina","Dek","Dekoa2.jpeg",40,"Benedict","Roh","Rohla1.jpeg","high","low"
"252",72,"rhbprfp2","learn_value","2","Cordelia","Benedict","Mon","Roh","Mona1n.jpeg","Rohla2.jpeg",60,0,849.065000016708,74,"Left",60,"Cordelia","Mon","Mona1n.jpeg",0,"Benedict","Roh","Rohla2.jpeg","medium","low"
"253",73,"rhbprfp2","learn_value","2","Benedict","Benedict","Roh","Roh","Roha1n.jpeg","Rohb3n.jpeg",40,40,678.4649999463,74,"Left",40,"Benedict","Roh","Roha1n.jpeg",40,"Benedict","Roh","Rohb3n.jpeg","low","low"
"254",74,"rhbprfp2","learn_value","2","Marina","Marina","Dek","Dek","Dekob3.jpeg","Dekoa2.jpeg",40,60,1591.214999964,75,"Right",60,"Marina","Dek","Dekoa2.jpeg",40,"Marina","Dek","Dekob3.jpeg","high","high"
"255",75,"rhbprfp2","learn_value","2","Marina","Cordelia","Dek","Mon","Dekoa2.jpeg","Monb3n.jpeg",60,40,573.590000043623,74,"Left",60,"Marina","Dek","Dekoa2.jpeg",40,"Cordelia","Mon","Monb3n.jpeg","high","medium"
"256",76,"rhbprfp2","learn_value","2","Marina","Marina","Dek","Dek","Deka2n.jpeg","Deka1n.jpeg",60,40,776.859999983571,74,"Left",60,"Marina","Dek","Deka2n.jpeg",40,"Marina","Dek","Deka1n.jpeg","high","high"
"257",77,"rhbprfp2","learn_value","2","Marina","Cordelia","Dek","Mon","Deka3n.jpeg","Monb1n.jpeg",40,40,1283.3400000236,74,"Left",40,"Marina","Dek","Deka3n.jpeg",40,"Cordelia","Mon","Monb1n.jpeg","high","medium"
"258",78,"rhbprfp2","learn_value","2","Cordelia","Benedict","Mon","Roh","Monb3n.jpeg","Rohla2.jpeg",40,0,931.154999998398,74,"Left",40,"Cordelia","Mon","Monb3n.jpeg",0,"Benedict","Roh","Rohla2.jpeg","medium","low"
"259",79,"rhbprfp2","learn_value","2","Cordelia","Cordelia","Mon","Mon","Monb2n.jpeg","Monb1n.jpeg",60,40,777.004999981727,74,"Left",60,"Cordelia","Mon","Monb2n.jpeg",40,"Cordelia","Mon","Monb1n.jpeg","medium","medium"
"260",80,"rhbprfp2","learn_value","2","Cordelia","Benedict","Mon","Roh","Mondb2.jpeg","Rohla3.jpeg",40,20,708.770000026561,74,"Left",40,"Cordelia","Mon","Mondb2.jpeg",20,"Benedict","Roh","Rohla3.jpeg","medium","low"
"261",81,"rhbprfp2","learn_value","2","Marina","Benedict","Dek","Roh","Deka2n.jpeg","Rohla1.jpeg",60,40,987.750000029337,74,"Left",60,"Marina","Dek","Deka2n.jpeg",40,"Benedict","Roh","Rohla1.jpeg","high","low"
"262",82,"rhbprfp2","learn_value","2","Marina","Benedict","Dek","Roh","Deka3n.jpeg","Rohb3n.jpeg",40,40,729.69499998726,74,"Left",40,"Marina","Dek","Deka3n.jpeg",40,"Benedict","Roh","Rohb3n.jpeg","high","low"
"263",83,"rhbprfp2","learn_value","2","Cordelia","Marina","Mon","Dek","Mondb2.jpeg","Dekoa1.jpeg",40,80,593.655000033323,75,"Right",80,"Marina","Dek","Dekoa1.jpeg",40,"Cordelia","Mon","Mondb2.jpeg","high","medium"
"264",84,"rhbprfp2","learn_value","2","Benedict","Cordelia","Roh","Mon","Rohb3n.jpeg","Monb1n.jpeg",40,40,633.195000002161,74,"Left",40,"Benedict","Roh","Rohb3n.jpeg",40,"Cordelia","Mon","Monb1n.jpeg","low","medium"
"265",85,"rhbprfp2","learn_value","2","Benedict","Marina","Roh","Dek","Rohla2.jpeg","Dekoa2.jpeg",0,60,729.619999998249,75,"Right",60,"Marina","Dek","Dekoa2.jpeg",0,"Benedict","Roh","Rohla2.jpeg","high","low"
"266",86,"rhbprfp2","learn_value","2","Marina","Benedict","Dek","Roh","Deka2n.jpeg","Rohb3n.jpeg",60,40,738.670000049751,74,"Left",60,"Marina","Dek","Deka2n.jpeg",40,"Benedict","Roh","Rohb3n.jpeg","high","low"
"267",87,"rhbprfp2","learn_value","2","Cordelia","Cordelia","Mon","Mon","Mondb2.jpeg","Mondb3.jpeg",40,20,1130.66500000423,75,"Right",20,"Cordelia","Mon","Mondb3.jpeg",40,"Cordelia","Mon","Mondb2.jpeg","medium","medium"
"268",88,"rhbprfp2","learn_value","2","Marina","Benedict","Dek","Roh","Dekoa2.jpeg","Rohb3n.jpeg",60,40,712.664999999106,74,"Left",60,"Marina","Dek","Dekoa2.jpeg",40,"Benedict","Roh","Rohb3n.jpeg","high","low"
"269",89,"rhbprfp2","learn_value","2","Marina","Marina","Dek","Dek","Dekoa1.jpeg","Dekob3.jpeg",80,40,550.945000024512,74,"Left",80,"Marina","Dek","Dekoa1.jpeg",40,"Marina","Dek","Dekob3.jpeg","high","high"
"270",90,"rhbprfp2","learn_value","2","Marina","Marina","Dek","Dek","Deka1n.jpeg","Deka3n.jpeg",40,40,522.769999981392,74,"Left",40,"Marina","Dek","Deka1n.jpeg",40,"Marina","Dek","Deka3n.jpeg","high","high"
"271",1,"b726ukjc","learn_value","1","Cordelia","Marina","Dek","Roh","Dekoa2.jpeg","Rohlb2.jpeg",20,40,1199.72500018775,74,"Left",20,"Cordelia","Dek","Dekoa2.jpeg",40,"Marina","Roh","Rohlb2.jpeg","low","high"
"272",2,"b726ukjc","learn_value","1","Benedict","Cordelia","Cli","Dek","Clifa2.jpeg","Dekoa1.jpeg",20,40,1274.01000028476,74,"Left",20,"Benedict","Cli","Clifa2.jpeg",40,"Cordelia","Dek","Dekoa1.jpeg","medium","low"
"273",3,"b726ukjc","learn_value","1","Cordelia","Benedict","Dek","Cli","Dekoa1.jpeg","Clifa2.jpeg",40,20,769.179999828339,74,"Left",40,"Cordelia","Dek","Dekoa1.jpeg",20,"Benedict","Cli","Clifa2.jpeg","low","medium"
"274",4,"b726ukjc","learn_value","1","Marina","Marina","Roh","Roh","Rohla1.jpeg","Rohlb2.jpeg",80,40,1016.22499991208,75,"Right",40,"Marina","Roh","Rohlb2.jpeg",80,"Marina","Roh","Rohla1.jpeg","high","high"
"275",5,"b726ukjc","learn_value","1","Benedict","Benedict","Cli","Cli","Clifa2.jpeg","Clib3n.jpeg",20,60,1262.65000039712,75,"Right",60,"Benedict","Cli","Clib3n.jpeg",20,"Benedict","Cli","Clifa2.jpeg","medium","medium"
"276",6,"b726ukjc","learn_value","1","Marina","Cordelia","Roh","Dek","Rohlb2.jpeg","Dekob3.jpeg",40,0,1020.21499956027,74,"Left",40,"Marina","Roh","Rohlb2.jpeg",0,"Cordelia","Dek","Dekob3.jpeg","high","low"
"277",7,"b726ukjc","learn_value","1","Marina","Marina","Roh","Roh","Rohla1.jpeg","Rohla3.jpeg",80,60,732.459999620914,75,"Right",60,"Marina","Roh","Rohla3.jpeg",80,"Marina","Roh","Rohla1.jpeg","high","high"
"278",8,"b726ukjc","learn_value","1","Marina","Marina","Roh","Roh","Rohlb2.jpeg","Rohb3n.jpeg",40,80,1186.8549999781,74,"Left",40,"Marina","Roh","Rohlb2.jpeg",80,"Marina","Roh","Rohb3n.jpeg","high","high"
"279",9,"b726ukjc","learn_value","1","Marina","Cordelia","Roh","Dek","Rohb3n.jpeg","Dekob3.jpeg",80,0,718.300000298768,75,"Right",0,"Cordelia","Dek","Dekob3.jpeg",80,"Marina","Roh","Rohb3n.jpeg","low","high"
"280",10,"b726ukjc","learn_value","1","Cordelia","Benedict","Dek","Cli","Dekob3.jpeg","Clia3n.jpeg",0,20,840.079999994487,75,"Right",20,"Benedict","Cli","Clia3n.jpeg",0,"Cordelia","Dek","Dekob3.jpeg","medium","low"
"281",11,"b726ukjc","learn_value","1","Marina","Marina","Roh","Roh","Rohla2.jpeg","Roha1n.jpeg",40,80,596.880000084639,74,"Left",40,"Marina","Roh","Rohla2.jpeg",80,"Marina","Roh","Roha1n.jpeg","high","high"
"282",12,"b726ukjc","learn_value","1","Marina","Cordelia","Roh","Dek","Rohla3.jpeg","Deka1n.jpeg",60,0,698.394999839365,75,"Right",0,"Cordelia","Dek","Deka1n.jpeg",60,"Marina","Roh","Rohla3.jpeg","low","high"
"283",13,"b726ukjc","learn_value","1","Marina","Cordelia","Roh","Dek","Rohla1.jpeg","Deka3n.jpeg",80,0,1209.52000003308,74,"Left",80,"Marina","Roh","Rohla1.jpeg",0,"Cordelia","Dek","Deka3n.jpeg","high","low"
"284",14,"b726ukjc","learn_value","1","Cordelia","Cordelia","Dek","Dek","Deka2n.jpeg","Deka3n.jpeg",20,0,1342.85499993712,75,"Right",0,"Cordelia","Dek","Deka3n.jpeg",20,"Cordelia","Dek","Deka2n.jpeg","low","low"
"285",15,"b726ukjc","learn_value","1","Marina","Benedict","Roh","Cli","Rohlb2.jpeg","Clib1n.jpeg",40,40,477.564999833703,75,"Right",40,"Benedict","Cli","Clib1n.jpeg",40,"Marina","Roh","Rohlb2.jpeg","medium","high"
"286",16,"b726ukjc","learn_value","1","Benedict","Benedict","Cli","Cli","Clib3n.jpeg","Clia3n.jpeg",60,20,449.06000001356,75,"Right",20,"Benedict","Cli","Clia3n.jpeg",60,"Benedict","Cli","Clib3n.jpeg","medium","medium"
"287",17,"b726ukjc","learn_value","1","Cordelia","Cordelia","Dek","Dek","Dekoa1.jpeg","Dekob3.jpeg",40,0,689.319999888539,75,"Right",0,"Cordelia","Dek","Dekob3.jpeg",40,"Cordelia","Dek","Dekoa1.jpeg","low","low"
"288",18,"b726ukjc","learn_value","1","Cordelia","Benedict","Dek","Cli","Dekob3.jpeg","Clifa1.jpeg",0,60,423.440000042319,75,"Right",60,"Benedict","Cli","Clifa1.jpeg",0,"Cordelia","Dek","Dekob3.jpeg","medium","low"
"289",19,"b726ukjc","learn_value","1","Marina","Benedict","Roh","Cli","Rohla1.jpeg","Clifa2.jpeg",80,20,1721.77499998361,75,"Right",20,"Benedict","Cli","Clifa2.jpeg",80,"Marina","Roh","Rohla1.jpeg","medium","high"
"290",20,"b726ukjc","learn_value","1","Benedict","Benedict","Cli","Cli","Clib1n.jpeg","Clib3n.jpeg",40,60,800.224999897182,74,"Left",40,"Benedict","Cli","Clib1n.jpeg",60,"Benedict","Cli","Clib3n.jpeg","medium","medium"
"291",21,"b726ukjc","learn_value","1","Benedict","Cordelia","Cli","Dek","Clib3n.jpeg","Deka2n.jpeg",60,20,815.684999804944,74,"Left",60,"Benedict","Cli","Clib3n.jpeg",20,"Cordelia","Dek","Deka2n.jpeg","medium","low"
"292",22,"b726ukjc","learn_value","1","Cordelia","Marina","Dek","Roh","Dekoa2.jpeg","Roha1n.jpeg",20,80,685.830000322312,75,"Right",80,"Marina","Roh","Roha1n.jpeg",20,"Cordelia","Dek","Dekoa2.jpeg","high","low"
"293",23,"b726ukjc","learn_value","1","Marina","Marina","Roh","Roh","Rohla2.jpeg","Rohb3n.jpeg",40,80,763.294999953359,74,"Left",40,"Marina","Roh","Rohla2.jpeg",80,"Marina","Roh","Rohb3n.jpeg","high","high"
"294",24,"b726ukjc","learn_value","1","Benedict","Marina","Cli","Roh","Clia2n.jpeg","Rohlb2.jpeg",40,40,482.115000020713,74,"Left",40,"Benedict","Cli","Clia2n.jpeg",40,"Marina","Roh","Rohlb2.jpeg","medium","high"
"295",25,"b726ukjc","learn_value","1","Cordelia","Cordelia","Dek","Dek","Deka1n.jpeg","Dekoa1.jpeg",0,40,93.230000231415,74,"Left",0,"Cordelia","Dek","Deka1n.jpeg",40,"Cordelia","Dek","Dekoa1.jpeg","low","low"
"296",26,"b726ukjc","learn_value","1","Marina","Cordelia","Roh","Dek","Rohlb2.jpeg","Deka2n.jpeg",40,20,1192.52000004053,74,"Left",40,"Marina","Roh","Rohlb2.jpeg",20,"Cordelia","Dek","Deka2n.jpeg","high","low"
"297",27,"b726ukjc","learn_value","1","Marina","Marina","Roh","Roh","Roha1n.jpeg","Rohla3.jpeg",80,60,1074.85499978065,74,"Left",80,"Marina","Roh","Roha1n.jpeg",60,"Marina","Roh","Rohla3.jpeg","high","high"
"298",28,"b726ukjc","learn_value","1","Cordelia","Marina","Dek","Roh","Dekoa2.jpeg","Rohlb2.jpeg",20,40,697.790000122041,74,"Left",20,"Cordelia","Dek","Dekoa2.jpeg",40,"Marina","Roh","Rohlb2.jpeg","low","high"
"299",29,"b726ukjc","learn_value","1","Benedict","Cordelia","Cli","Dek","Clib3n.jpeg","Dekoa2.jpeg",60,20,1118.19999990985,74,"Left",60,"Benedict","Cli","Clib3n.jpeg",20,"Cordelia","Dek","Dekoa2.jpeg","medium","low"
"300",30,"b726ukjc","learn_value","1","Marina","Marina","Roh","Roh","Rohla3.jpeg","Rohlb2.jpeg",60,40,589.510000310838,74,"Left",60,"Marina","Roh","Rohla3.jpeg",40,"Marina","Roh","Rohlb2.jpeg","high","high"
"301",31,"b726ukjc","learn_value","1","Benedict","Benedict","Cli","Cli","Clib3n.jpeg","Clia2n.jpeg",60,40,827.550000045449,74,"Left",60,"Benedict","Cli","Clib3n.jpeg",40,"Benedict","Cli","Clia2n.jpeg","medium","medium"
"302",32,"b726ukjc","learn_value","1","Marina","Benedict","Roh","Cli","Roha1n.jpeg","Clia3n.jpeg",80,20,273.47999997437,74,"Left",80,"Marina","Roh","Roha1n.jpeg",20,"Benedict","Cli","Clia3n.jpeg","high","medium"
"303",33,"b726ukjc","learn_value","1","Benedict","Marina","Cli","Roh","Clib1n.jpeg","Rohla3.jpeg",40,60,596.530000213534,75,"Right",60,"Marina","Roh","Rohla3.jpeg",40,"Benedict","Cli","Clib1n.jpeg","high","medium"
"304",34,"b726ukjc","learn_value","1","Cordelia","Benedict","Dek","Cli","Deka3n.jpeg","Clifa2.jpeg",0,20,NA,NA,NA,NA,NA,NA,NA,NA,NA,NA,NA,NA,NA
"305",35,"b726ukjc","learn_value","1","Cordelia","Cordelia","Dek","Dek","Dekoa2.jpeg","Deka2n.jpeg",20,20,589.355000294745,74,"Left",20,"Cordelia","Dek","Dekoa2.jpeg",20,"Cordelia","Dek","Deka2n.jpeg","low","low"
"306",36,"b726ukjc","learn_value","1","Marina","Benedict","Roh","Cli","Rohla2.jpeg","Clia3n.jpeg",40,20,840.420000255108,74,"Left",40,"Marina","Roh","Rohla2.jpeg",20,"Benedict","Cli","Clia3n.jpeg","high","medium"
"307",37,"b726ukjc","learn_value","1","Cordelia","Cordelia","Dek","Dek","Dekoa2.jpeg","Dekoa1.jpeg",20,40,0.115000177174807,75,"Right",40,"Cordelia","Dek","Dekoa1.jpeg",20,"Cordelia","Dek","Dekoa2.jpeg","low","low"
"308",38,"b726ukjc","learn_value","1","Marina","Cordelia","Roh","Dek","Rohla2.jpeg","Dekoa2.jpeg",40,20,785.979999694973,75,"Right",20,"Cordelia","Dek","Dekoa2.jpeg",40,"Marina","Roh","Rohla2.jpeg","low","high"
"309",39,"b726ukjc","learn_value","1","Cordelia","Marina","Dek","Roh","Dekob3.jpeg","Rohla2.jpeg",0,40,744.204999879003,75,"Right",40,"Marina","Roh","Rohla2.jpeg",0,"Cordelia","Dek","Dekob3.jpeg","high","low"
"310",40,"b726ukjc","learn_value","1","Marina","Benedict","Roh","Cli","Rohlb2.jpeg","Clib3n.jpeg",40,60,375.514999963343,75,"Right",60,"Benedict","Cli","Clib3n.jpeg",40,"Marina","Roh","Rohlb2.jpeg","medium","high"
"311",41,"b726ukjc","learn_value","1","Marina","Cordelia","Roh","Dek","Rohla2.jpeg","Dekoa1.jpeg",40,40,819.604999851435,75,"Right",40,"Cordelia","Dek","Dekoa1.jpeg",40,"Marina","Roh","Rohla2.jpeg","low","high"
"312",42,"b726ukjc","learn_value","1","Benedict","Benedict","Cli","Cli","Clib3n.jpeg","Clifa1.jpeg",60,60,289.48500007391,74,"Left",60,"Benedict","Cli","Clib3n.jpeg",60,"Benedict","Cli","Clifa1.jpeg","medium","medium"
"313",43,"b726ukjc","learn_value","1","Marina","Marina","Roh","Roh","Rohla2.jpeg","Rohla3.jpeg",40,60,195.890000090003,74,"Left",40,"Marina","Roh","Rohla2.jpeg",60,"Marina","Roh","Rohla3.jpeg","high","high"
"314",44,"b726ukjc","learn_value","1","Cordelia","Cordelia","Dek","Dek","Deka1n.jpeg","Dekob3.jpeg",0,0,584.414999932051,75,"Right",0,"Cordelia","Dek","Dekob3.jpeg",0,"Cordelia","Dek","Deka1n.jpeg","low","low"
"315",45,"b726ukjc","learn_value","1","Marina","Benedict","Roh","Cli","Rohla1.jpeg","Clia2n.jpeg",80,40,685.545000247657,75,"Right",40,"Benedict","Cli","Clia2n.jpeg",80,"Marina","Roh","Rohla1.jpeg","medium","high"
"316",46,"b726ukjc","learn_value","1","Benedict","Benedict","Cli","Cli","Clib1n.jpeg","Clia3n.jpeg",40,20,841.235000174493,75,"Right",20,"Benedict","Cli","Clia3n.jpeg",40,"Benedict","Cli","Clib1n.jpeg","medium","medium"
"317",47,"b726ukjc","learn_value","2","Marina","Marina","Roh","Roh","Roha1n.jpeg","Rohb3n.jpeg",80,80,651.735000312328,74,"Left",80,"Marina","Roh","Roha1n.jpeg",80,"Marina","Roh","Rohb3n.jpeg","high","high"
"318",48,"b726ukjc","learn_value","2","Cordelia","Cordelia","Dek","Dek","Dekoa2.jpeg","Dekob3.jpeg",20,0,635.39500022307,74,"Left",20,"Cordelia","Dek","Dekoa2.jpeg",0,"Cordelia","Dek","Dekob3.jpeg","low","low"
"319",49,"b726ukjc","learn_value","2","Benedict","Cordelia","Cli","Dek","Clia2n.jpeg","Dekob3.jpeg",40,0,656.960000284016,74,"Left",40,"Benedict","Cli","Clia2n.jpeg",0,"Cordelia","Dek","Dekob3.jpeg","medium","low"
"320",50,"b726ukjc","learn_value","2","Benedict","Benedict","Cli","Cli","Clib1n.jpeg","Clifa1.jpeg",40,60,279.209999833256,74,"Left",40,"Benedict","Cli","Clib1n.jpeg",60,"Benedict","Cli","Clifa1.jpeg","medium","medium"
"321",51,"b726ukjc","learn_value","2","Marina","Cordelia","Roh","Dek","Rohla1.jpeg","Deka2n.jpeg",80,20,225.855000317097,74,"Left",80,"Marina","Roh","Rohla1.jpeg",20,"Cordelia","Dek","Deka2n.jpeg","high","low"
"322",52,"b726ukjc","learn_value","2","Cordelia","Cordelia","Dek","Dek","Deka3n.jpeg","Deka1n.jpeg",0,0,1454.14499985054,74,"Left",0,"Cordelia","Dek","Deka3n.jpeg",0,"Cordelia","Dek","Deka1n.jpeg","low","low"
"323",53,"b726ukjc","learn_value","2","Marina","Marina","Roh","Roh","Rohb3n.jpeg","Rohla3.jpeg",80,60,609.539999626577,74,"Left",80,"Marina","Roh","Rohb3n.jpeg",60,"Marina","Roh","Rohla3.jpeg","high","high"
"324",54,"b726ukjc","learn_value","2","Benedict","Benedict","Cli","Cli","Clifa1.jpeg","Clia3n.jpeg",60,20,955.314999911934,74,"Left",60,"Benedict","Cli","Clifa1.jpeg",20,"Benedict","Cli","Clia3n.jpeg","medium","medium"
"325",55,"b726ukjc","learn_value","2","Marina","Cordelia","Roh","Dek","Rohb3n.jpeg","Deka2n.jpeg",80,20,267.925000283867,74,"Left",80,"Marina","Roh","Rohb3n.jpeg",20,"Cordelia","Dek","Deka2n.jpeg","high","low"
"326",56,"b726ukjc","learn_value","2","Benedict","Marina","Cli","Roh","Clia3n.jpeg","Rohb3n.jpeg",20,80,579.790000338107,74,"Left",20,"Benedict","Cli","Clia3n.jpeg",80,"Marina","Roh","Rohb3n.jpeg","medium","high"
"327",57,"b726ukjc","learn_value","2","Cordelia","Cordelia","Dek","Dek","Deka2n.jpeg","Dekob3.jpeg",20,0,1157.60500030592,74,"Left",20,"Cordelia","Dek","Deka2n.jpeg",0,"Cordelia","Dek","Dekob3.jpeg","low","low"
"328",58,"b726ukjc","learn_value","2","Cordelia","Benedict","Dek","Cli","Deka1n.jpeg","Clib3n.jpeg",0,60,1064.91499999538,75,"Right",60,"Benedict","Cli","Clib3n.jpeg",0,"Cordelia","Dek","Deka1n.jpeg","medium","low"
"329",59,"b726ukjc","learn_value","2","Benedict","Benedict","Cli","Cli","Clifa2.jpeg","Clia2n.jpeg",20,40,585.81000007689,75,"Right",40,"Benedict","Cli","Clia2n.jpeg",20,"Benedict","Cli","Clifa2.jpeg","medium","medium"
"330",60,"b726ukjc","learn_value","2","Benedict","Benedict","Cli","Cli","Clia3n.jpeg","Clia2n.jpeg",20,40,778.180000372231,74,"Left",20,"Benedict","Cli","Clia3n.jpeg",40,"Benedict","Cli","Clia2n.jpeg","medium","medium"
"331",61,"b726ukjc","learn_value","2","Cordelia","Marina","Dek","Roh","Dekoa1.jpeg","Rohla1.jpeg",40,80,946.175000164658,75,"Right",80,"Marina","Roh","Rohla1.jpeg",40,"Cordelia","Dek","Dekoa1.jpeg","high","low"
"332",62,"b726ukjc","learn_value","2","Marina","Benedict","Roh","Cli","Roha1n.jpeg","Clia2n.jpeg",80,40,1010.39500022307,74,"Left",80,"Marina","Roh","Roha1n.jpeg",40,"Benedict","Cli","Clia2n.jpeg","high","medium"
"333",63,"b726ukjc","learn_value","2","Cordelia","Cordelia","Dek","Dek","Deka3n.jpeg","Dekob3.jpeg",0,0,635.290000122041,75,"Right",0,"Cordelia","Dek","Dekob3.jpeg",0,"Cordelia","Dek","Deka3n.jpeg","low","low"
"334",64,"b726ukjc","learn_value","2","Cordelia","Benedict","Dek","Cli","Dekoa2.jpeg","Clib1n.jpeg",20,40,887.709999922663,74,"Left",20,"Cordelia","Dek","Dekoa2.jpeg",40,"Benedict","Cli","Clib1n.jpeg","low","medium"
"335",65,"b726ukjc","learn_value","2","Cordelia","Cordelia","Dek","Dek","Deka2n.jpeg","Dekoa1.jpeg",20,40,741.754999849945,74,"Left",20,"Cordelia","Dek","Deka2n.jpeg",40,"Cordelia","Dek","Dekoa1.jpeg","low","low"
"336",66,"b726ukjc","learn_value","2","Marina","Marina","Roh","Roh","Rohla2.jpeg","Rohlb2.jpeg",40,40,959.155000280589,74,"Left",40,"Marina","Roh","Rohla2.jpeg",40,"Marina","Roh","Rohlb2.jpeg","high","high"
"337",67,"b726ukjc","learn_value","2","Benedict","Cordelia","Cli","Dek","Clifa2.jpeg","Deka2n.jpeg",20,20,833.275000099093,74,"Left",20,"Benedict","Cli","Clifa2.jpeg",20,"Cordelia","Dek","Deka2n.jpeg","medium","low"
"338",68,"b726ukjc","learn_value","2","Marina","Marina","Roh","Roh","Roha1n.jpeg","Rohla1.jpeg",80,80,629.370000213385,74,"Left",80,"Marina","Roh","Roha1n.jpeg",80,"Marina","Roh","Rohla1.jpeg","high","high"
"339",69,"b726ukjc","learn_value","2","Marina","Benedict","Roh","Cli","Rohla2.jpeg","Clia3n.jpeg",40,20,934.150000102818,75,"Right",20,"Benedict","Cli","Clia3n.jpeg",40,"Marina","Roh","Rohla2.jpeg","medium","high"
"340",70,"b726ukjc","learn_value","2","Benedict","Benedict","Cli","Cli","Clifa2.jpeg","Clib1n.jpeg",20,40,856.575000099838,75,"Right",40,"Benedict","Cli","Clib1n.jpeg",20,"Benedict","Cli","Clifa2.jpeg","medium","medium"
"341",71,"b726ukjc","learn_value","2","Cordelia","Cordelia","Dek","Dek","Deka1n.jpeg","Deka2n.jpeg",0,20,548.260000068694,75,"Right",20,"Cordelia","Dek","Deka2n.jpeg",0,"Cordelia","Dek","Deka1n.jpeg","low","low"
"342",72,"b726ukjc","learn_value","2","Cordelia","Benedict","Dek","Cli","Dekoa2.jpeg","Clifa1.jpeg",20,60,976.925000082701,75,"Right",60,"Benedict","Cli","Clifa1.jpeg",20,"Cordelia","Dek","Dekoa2.jpeg","medium","low"
"343",73,"b726ukjc","learn_value","2","Marina","Marina","Roh","Roh","Rohb3n.jpeg","Rohla1.jpeg",80,80,774.625000078231,75,"Right",80,"Marina","Roh","Rohla1.jpeg",80,"Marina","Roh","Rohb3n.jpeg","high","high"
"344",74,"b726ukjc","learn_value","2","Marina","Benedict","Roh","Cli","Rohla2.jpeg","Clifa1.jpeg",40,60,777.8600002639,75,"Right",60,"Benedict","Cli","Clifa1.jpeg",40,"Marina","Roh","Rohla2.jpeg","medium","high"
"345",75,"b726ukjc","learn_value","2","Marina","Benedict","Roh","Cli","Rohla1.jpeg","Clifa1.jpeg",80,60,387.260000221431,74,"Left",80,"Marina","Roh","Rohla1.jpeg",60,"Benedict","Cli","Clifa1.jpeg","high","medium"
"346",76,"b726ukjc","learn_value","2","Cordelia","Cordelia","Dek","Dek","Deka3n.jpeg","Dekoa1.jpeg",0,40,1476.45500022918,74,"Left",0,"Cordelia","Dek","Deka3n.jpeg",40,"Cordelia","Dek","Dekoa1.jpeg","low","low"
"347",77,"b726ukjc","learn_value","2","Marina","Benedict","Roh","Cli","Rohlb2.jpeg","Clib3n.jpeg",40,60,1001.07999984175,74,"Left",40,"Marina","Roh","Rohlb2.jpeg",60,"Benedict","Cli","Clib3n.jpeg","high","medium"
"348",78,"b726ukjc","learn_value","2","Cordelia","Marina","Dek","Roh","Dekoa1.jpeg","Roha1n.jpeg",40,80,873.190000187606,75,"Right",80,"Marina","Roh","Roha1n.jpeg",40,"Cordelia","Dek","Dekoa1.jpeg","high","low"
"349",79,"b726ukjc","learn_value","2","Cordelia","Benedict","Dek","Cli","Dekoa2.jpeg","Clib1n.jpeg",20,40,846.175000071526,74,"Left",20,"Cordelia","Dek","Dekoa2.jpeg",40,"Benedict","Cli","Clib1n.jpeg","low","medium"
"350",80,"b726ukjc","learn_value","2","Benedict","Cordelia","Cli","Dek","Clia2n.jpeg","Dekoa1.jpeg",40,40,778.704999946058,75,"Right",40,"Cordelia","Dek","Dekoa1.jpeg",40,"Benedict","Cli","Clia2n.jpeg","low","medium"
"351",81,"b726ukjc","learn_value","2","Benedict","Benedict","Cli","Cli","Clifa1.jpeg","Clifa2.jpeg",60,20,900.925000198185,74,"Left",60,"Benedict","Cli","Clifa1.jpeg",20,"Benedict","Cli","Clifa2.jpeg","medium","medium"
"352",82,"b726ukjc","learn_value","2","Cordelia","Cordelia","Dek","Dek","Dekoa2.jpeg","Deka3n.jpeg",20,0,827.670000027865,75,"Right",0,"Cordelia","Dek","Deka3n.jpeg",20,"Cordelia","Dek","Dekoa2.jpeg","low","low"
"353",83,"b726ukjc","learn_value","2","Benedict","Cordelia","Cli","Dek","Clifa1.jpeg","Deka2n.jpeg",60,20,1139.84000030905,74,"Left",60,"Benedict","Cli","Clifa1.jpeg",20,"Cordelia","Dek","Deka2n.jpeg","medium","low"
"354",84,"b726ukjc","learn_value","2","Benedict","Benedict","Cli","Cli","Clifa2.jpeg","Clia3n.jpeg",20,20,659.440000075847,74,"Left",20,"Benedict","Cli","Clifa2.jpeg",20,"Benedict","Cli","Clia3n.jpeg","medium","medium"
"355",85,"b726ukjc","learn_value","2","Marina","Marina","Roh","Roh","Rohla1.jpeg","Rohla2.jpeg",80,40,683.465000241995,74,"Left",80,"Marina","Roh","Rohla1.jpeg",40,"Marina","Roh","Rohla2.jpeg","high","high"
"356",86,"b726ukjc","learn_value","2","Benedict","Marina","Cli","Roh","Clib1n.jpeg","Rohb3n.jpeg",40,80,731.914999894798,75,"Right",80,"Marina","Roh","Rohb3n.jpeg",40,"Benedict","Cli","Clib1n.jpeg","high","medium"
"357",87,"b726ukjc","learn_value","2","Benedict","Benedict","Cli","Cli","Clib1n.jpeg","Clia2n.jpeg",40,40,915.484999772161,74,"Left",40,"Benedict","Cli","Clib1n.jpeg",40,"Benedict","Cli","Clia2n.jpeg","medium","medium"
"358",88,"b726ukjc","learn_value","2","Cordelia","Cordelia","Dek","Dek","Deka1n.jpeg","Dekoa2.jpeg",0,20,720.399999991059,74,"Left",0,"Cordelia","Dek","Deka1n.jpeg",20,"Cordelia","Dek","Dekoa2.jpeg","low","low"
"359",89,"b726ukjc","learn_value","2","Benedict","Benedict","Cli","Cli","Clia2n.jpeg","Clifa1.jpeg",40,60,841.394999995828,75,"Right",60,"Benedict","Cli","Clifa1.jpeg",40,"Benedict","Cli","Clia2n.jpeg","medium","medium"
"360",90,"b726ukjc","learn_value","2","Marina","Marina","Roh","Roh","Roha1n.jpeg","Rohlb2.jpeg",80,40,548.544999677688,74,"Left",80,"Marina","Roh","Roha1n.jpeg",40,"Marina","Roh","Rohlb2.jpeg","high","high"
"361",1,"7cc1gwex","learn_value","1","Cordelia","Benedict","Mon","Cli","Mondb2.jpeg","Clifa1.jpeg",20,80,1399.43999997922,74,"Left",20,"Cordelia","Mon","Mondb2.jpeg",80,"Benedict","Cli","Clifa1.jpeg","low","high"
"362",2,"7cc1gwex","learn_value","1","Benedict","Marina","Cli","Rot","Clia2n.jpeg","Rotb1n.jpeg",60,60,1277.82000001753,74,"Left",60,"Benedict","Cli","Clia2n.jpeg",60,"Marina","Rot","Rotb1n.jpeg","high","medium"
"363",3,"7cc1gwex","learn_value","1","Cordelia","Cordelia","Mon","Mon","Monb2n.jpeg","Mondb2.jpeg",40,20,2166.74499999499,74,"Left",40,"Cordelia","Mon","Monb2n.jpeg",20,"Cordelia","Mon","Mondb2.jpeg","low","low"
"364",4,"7cc1gwex","learn_value","1","Cordelia","Cordelia","Mon","Mon","Mona1n.jpeg","Mondb2.jpeg",40,20,846.149999997579,75,"Right",20,"Cordelia","Mon","Mondb2.jpeg",40,"Cordelia","Mon","Mona1n.jpeg","low","low"
"365",5,"7cc1gwex","learn_value","1","Benedict","Marina","Cli","Rot","Clia3n.jpeg","Rota3n.jpeg",40,20,1173.66999998922,75,"Right",20,"Marina","Rot","Rota3n.jpeg",40,"Benedict","Cli","Clia3n.jpeg","medium","high"
"366",6,"7cc1gwex","learn_value","1","Cordelia","Cordelia","Mon","Mon","Mona1n.jpeg","Monb2n.jpeg",40,40,1077.59000000078,75,"Right",40,"Cordelia","Mon","Monb2n.jpeg",40,"Cordelia","Mon","Mona1n.jpeg","low","low"
"367",7,"7cc1gwex","learn_value","1","Cordelia","Benedict","Mon","Cli","Mona1n.jpeg","Clib1n.jpeg",40,60,1282.78999999748,75,"Right",60,"Benedict","Cli","Clib1n.jpeg",40,"Cordelia","Mon","Mona1n.jpeg","high","low"
"368",8,"7cc1gwex","learn_value","1","Benedict","Cordelia","Cli","Mon","Clib3n.jpeg","Monb3n.jpeg",80,20,2488.58999999356,74,"Left",80,"Benedict","Cli","Clib3n.jpeg",20,"Cordelia","Mon","Monb3n.jpeg","high","low"
"369",9,"7cc1gwex","learn_value","1","Benedict","Benedict","Cli","Cli","Clia3n.jpeg","Clib3n.jpeg",40,80,953.549999976531,74,"Left",40,"Benedict","Cli","Clia3n.jpeg",80,"Benedict","Cli","Clib3n.jpeg","high","high"
"370",10,"7cc1gwex","learn_value","1","Marina","Marina","Rot","Rot","Rota3n.jpeg","Rotb1n.jpeg",20,60,1072.74000000325,74,"Left",20,"Marina","Rot","Rota3n.jpeg",60,"Marina","Rot","Rotb1n.jpeg","medium","medium"
"371",11,"7cc1gwex","learn_value","1","Benedict","Marina","Cli","Rot","Clib3n.jpeg","Rota3n.jpeg",80,20,820.834999991348,75,"Right",20,"Marina","Rot","Rota3n.jpeg",80,"Benedict","Cli","Clib3n.jpeg","medium","high"
"372",12,"7cc1gwex","learn_value","1","Marina","Benedict","Rot","Cli","Rotha3.jpeg","Clifa1.jpeg",20,80,734.040000010282,74,"Left",20,"Marina","Rot","Rotha3.jpeg",80,"Benedict","Cli","Clifa1.jpeg","medium","high"
"373",13,"7cc1gwex","learn_value","1","Cordelia","Benedict","Mon","Cli","Mona1n.jpeg","Clib3n.jpeg",40,80,938.795000023674,75,"Right",80,"Benedict","Cli","Clib3n.jpeg",40,"Cordelia","Mon","Mona1n.jpeg","high","low"
"374",14,"7cc1gwex","learn_value","1","Cordelia","Cordelia","Mon","Mon","Mona1n.jpeg","Monb1n.jpeg",40,20,958.415000000969,74,"Left",40,"Cordelia","Mon","Mona1n.jpeg",20,"Cordelia","Mon","Monb1n.jpeg","low","low"
"375",15,"7cc1gwex","learn_value","1","Marina","Cordelia","Rot","Mon","Rota3n.jpeg","Monb3n.jpeg",20,20,586.24500001315,75,"Right",20,"Cordelia","Mon","Monb3n.jpeg",20,"Marina","Rot","Rota3n.jpeg","low","medium"
"376",16,"7cc1gwex","learn_value","1","Benedict","Benedict","Cli","Cli","Clib1n.jpeg","Clia2n.jpeg",60,60,1945.87500000489,75,"Right",60,"Benedict","Cli","Clia2n.jpeg",60,"Benedict","Cli","Clib1n.jpeg","high","high"
"377",17,"7cc1gwex","learn_value","1","Cordelia","Benedict","Mon","Cli","Mondb2.jpeg","Clifa2.jpeg",20,40,1069.54500000575,75,"Right",40,"Benedict","Cli","Clifa2.jpeg",20,"Cordelia","Mon","Mondb2.jpeg","high","low"
"378",18,"7cc1gwex","learn_value","1","Benedict","Benedict","Cli","Cli","Clia2n.jpeg","Clib3n.jpeg",60,80,1654.43999998388,74,"Left",60,"Benedict","Cli","Clia2n.jpeg",80,"Benedict","Cli","Clib3n.jpeg","high","high"
"379",19,"7cc1gwex","learn_value","1","Cordelia","Cordelia","Mon","Mon","Mondb3.jpeg","Monb1n.jpeg",0,20,879.11000000895,74,"Left",0,"Cordelia","Mon","Mondb3.jpeg",20,"Cordelia","Mon","Monb1n.jpeg","low","low"
"380",20,"7cc1gwex","learn_value","1","Benedict","Cordelia","Cli","Mon","Clib3n.jpeg","Monb2n.jpeg",80,40,785.970000026282,75,"Right",40,"Cordelia","Mon","Monb2n.jpeg",80,"Benedict","Cli","Clib3n.jpeg","low","high"
"381",21,"7cc1gwex","learn_value","1","Benedict","Benedict","Cli","Cli","Clib1n.jpeg","Clia3n.jpeg",60,40,844.414999999572,75,"Right",40,"Benedict","Cli","Clia3n.jpeg",60,"Benedict","Cli","Clib1n.jpeg","high","high"
"382",22,"7cc1gwex","learn_value","1","Cordelia","Marina","Mon","Rot","Monb2n.jpeg","Rotha3.jpeg",40,20,713.845000020228,74,"Left",40,"Cordelia","Mon","Monb2n.jpeg",20,"Marina","Rot","Rotha3.jpeg","low","medium"
"383",23,"7cc1gwex","learn_value","1","Marina","Marina","Rot","Rot","Rota3n.jpeg","Rothb2.jpeg",20,40,932.385000021895,75,"Right",40,"Marina","Rot","Rothb2.jpeg",20,"Marina","Rot","Rota3n.jpeg","medium","medium"
"384",24,"7cc1gwex","learn_value","1","Cordelia","Marina","Mon","Rot","Mona1n.jpeg","Rothb2.jpeg",40,40,671.515000023646,75,"Right",40,"Marina","Rot","Rothb2.jpeg",40,"Cordelia","Mon","Mona1n.jpeg","medium","low"
"385",25,"7cc1gwex","learn_value","1","Cordelia","Marina","Mon","Rot","Monb2n.jpeg","Rota3n.jpeg",40,20,702.209999988554,74,"Left",40,"Cordelia","Mon","Monb2n.jpeg",20,"Marina","Rot","Rota3n.jpeg","low","medium"
"386",26,"7cc1gwex","learn_value","1","Benedict","Benedict","Cli","Cli","Clifa1.jpeg","Clia3n.jpeg",80,40,743.459999997867,75,"Right",40,"Benedict","Cli","Clia3n.jpeg",80,"Benedict","Cli","Clifa1.jpeg","high","high"
"387",27,"7cc1gwex","learn_value","1","Marina","Marina","Rot","Rot","Rothb2.jpeg","Rota1n.jpeg",40,40,894.629999995232,74,"Left",40,"Marina","Rot","Rothb2.jpeg",40,"Marina","Rot","Rota1n.jpeg","medium","medium"
"388",28,"7cc1gwex","learn_value","1","Cordelia","Marina","Mon","Rot","Mona1n.jpeg","Rotb1n.jpeg",40,60,974.385000008624,75,"Right",60,"Marina","Rot","Rotb1n.jpeg",40,"Cordelia","Mon","Mona1n.jpeg","medium","low"
"389",29,"7cc1gwex","learn_value","1","Marina","Marina","Rot","Rot","Rotb1n.jpeg","Rota1n.jpeg",60,40,2110.8349999995,75,"Right",40,"Marina","Rot","Rota1n.jpeg",60,"Marina","Rot","Rotb1n.jpeg","medium","medium"
"390",30,"7cc1gwex","learn_value","1","Cordelia","Cordelia","Mon","Mon","Monb3n.jpeg","Monb2n.jpeg",20,40,1131.99500000337,74,"Left",20,"Cordelia","Mon","Monb3n.jpeg",40,"Cordelia","Mon","Monb2n.jpeg","low","low"
"391",31,"7cc1gwex","learn_value","1","Cordelia","Cordelia","Mon","Mon","Mona1n.jpeg","Monb3n.jpeg",40,20,661.389999993844,75,"Right",20,"Cordelia","Mon","Monb3n.jpeg",40,"Cordelia","Mon","Mona1n.jpeg","low","low"
"392",32,"7cc1gwex","learn_value","1","Benedict","Benedict","Cli","Cli","Clia2n.jpeg","Clifa1.jpeg",60,80,869.000000006054,74,"Left",60,"Benedict","Cli","Clia2n.jpeg",80,"Benedict","Cli","Clifa1.jpeg","high","high"
"393",33,"7cc1gwex","learn_value","1","Marina","Marina","Rot","Rot","Rothb2.jpeg","Rotha3.jpeg",40,20,835.800000000745,74,"Left",40,"Marina","Rot","Rothb2.jpeg",20,"Marina","Rot","Rotha3.jpeg","medium","medium"
"394",34,"7cc1gwex","learn_value","1","Marina","Marina","Rot","Rot","Rothb2.jpeg","Rotb1n.jpeg",40,60,717.799999983981,74,"Left",40,"Marina","Rot","Rothb2.jpeg",60,"Marina","Rot","Rotb1n.jpeg","medium","medium"
"395",35,"7cc1gwex","learn_value","1","Cordelia","Marina","Mon","Rot","Monb3n.jpeg","Rota1n.jpeg",20,40,1013.99499998661,74,"Left",20,"Cordelia","Mon","Monb3n.jpeg",40,"Marina","Rot","Rota1n.jpeg","low","medium"
"396",36,"7cc1gwex","learn_value","1","Benedict","Benedict","Cli","Cli","Clia2n.jpeg","Clia3n.jpeg",60,40,716.864999994868,75,"Right",40,"Benedict","Cli","Clia3n.jpeg",60,"Benedict","Cli","Clia2n.jpeg","high","high"
"397",37,"7cc1gwex","learn_value","1","Cordelia","Marina","Mon","Rot","Monb3n.jpeg","Rothb2.jpeg",20,40,703.069999988656,75,"Right",40,"Marina","Rot","Rothb2.jpeg",20,"Cordelia","Mon","Monb3n.jpeg","medium","low"
"398",38,"7cc1gwex","learn_value","1","Benedict","Marina","Cli","Rot","Clia2n.jpeg","Rotb1n.jpeg",60,60,851.839999988442,74,"Left",60,"Benedict","Cli","Clia2n.jpeg",60,"Marina","Rot","Rotb1n.jpeg","high","medium"
"399",39,"7cc1gwex","learn_value","1","Benedict","Benedict","Cli","Cli","Clia2n.jpeg","Clifa2.jpeg",60,40,1571.98499998776,75,"Right",40,"Benedict","Cli","Clifa2.jpeg",60,"Benedict","Cli","Clia2n.jpeg","high","high"
"400",40,"7cc1gwex","learn_value","1","Marina","Marina","Rot","Rot","Rothb2.jpeg","Rotb2n.jpeg",40,60,893.665000010515,75,"Right",60,"Marina","Rot","Rotb2n.jpeg",40,"Marina","Rot","Rothb2.jpeg","medium","medium"
"401",41,"7cc1gwex","learn_value","1","Benedict","Marina","Cli","Rot","Clia3n.jpeg","Rothb2.jpeg",40,40,1161.18499997538,75,"Right",40,"Marina","Rot","Rothb2.jpeg",40,"Benedict","Cli","Clia3n.jpeg","medium","high"
"402",42,"7cc1gwex","learn_value","1","Marina","Benedict","Rot","Cli","Rotha3.jpeg","Clib1n.jpeg",20,60,895.894999994198,74,"Left",20,"Marina","Rot","Rotha3.jpeg",60,"Benedict","Cli","Clib1n.jpeg","medium","high"
"403",43,"7cc1gwex","learn_value","1","Benedict","Benedict","Cli","Cli","Clifa2.jpeg","Clib1n.jpeg",40,60,980.530000000726,74,"Left",40,"Benedict","Cli","Clifa2.jpeg",60,"Benedict","Cli","Clib1n.jpeg","high","high"
"404",44,"7cc1gwex","learn_value","1","Marina","Benedict","Rot","Cli","Rotb2n.jpeg","Clia3n.jpeg",60,40,751.959999994142,74,"Left",60,"Marina","Rot","Rotb2n.jpeg",40,"Benedict","Cli","Clia3n.jpeg","medium","high"
"405",45,"7cc1gwex","learn_value","1","Cordelia","Marina","Mon","Rot","Monb1n.jpeg","Rotha3.jpeg",20,20,655.144999996992,75,"Right",20,"Marina","Rot","Rotha3.jpeg",20,"Cordelia","Mon","Monb1n.jpeg","medium","low"
"406",46,"7cc1gwex","learn_value","1","Benedict","Cordelia","Cli","Mon","Clia2n.jpeg","Mona1n.jpeg",60,40,752.110000001267,74,"Left",60,"Benedict","Cli","Clia2n.jpeg",40,"Cordelia","Mon","Mona1n.jpeg","high","low"
"407",47,"7cc1gwex","learn_value","2","Cordelia","Cordelia","Mon","Mon","Mondb3.jpeg","Mondb2.jpeg",0,20,1437.3149999883,74,"Left",0,"Cordelia","Mon","Mondb3.jpeg",20,"Cordelia","Mon","Mondb2.jpeg","low","low"
"408",48,"7cc1gwex","learn_value","2","Benedict","Benedict","Cli","Cli","Clia3n.jpeg","Clifa2.jpeg",40,40,695.509999990463,75,"Right",40,"Benedict","Cli","Clifa2.jpeg",40,"Benedict","Cli","Clia3n.jpeg","high","high"
"409",49,"7cc1gwex","learn_value","2","Cordelia","Benedict","Mon","Cli","Mondb2.jpeg","Clifa1.jpeg",20,80,861.039999988861,74,"Left",20,"Cordelia","Mon","Mondb2.jpeg",80,"Benedict","Cli","Clifa1.jpeg","low","high"
"410",50,"7cc1gwex","learn_value","2","Marina","Benedict","Rot","Cli","Rotb1n.jpeg","Clia3n.jpeg",60,40,639.574999979232,75,"Right",40,"Benedict","Cli","Clia3n.jpeg",60,"Marina","Rot","Rotb1n.jpeg","high","medium"
"411",51,"7cc1gwex","learn_value","2","Benedict","Marina","Cli","Rot","Clia3n.jpeg","Rota3n.jpeg",40,20,1027.56000001682,75,"Right",20,"Marina","Rot","Rota3n.jpeg",40,"Benedict","Cli","Clia3n.jpeg","medium","high"
"412",52,"7cc1gwex","learn_value","2","Benedict","Marina","Cli","Rot","Clifa1.jpeg","Rothb2.jpeg",80,40,564.375000016298,75,"Right",40,"Marina","Rot","Rothb2.jpeg",80,"Benedict","Cli","Clifa1.jpeg","medium","high"
"413",53,"7cc1gwex","learn_value","2","Benedict","Cordelia","Cli","Mon","Clia2n.jpeg","Monb3n.jpeg",60,20,708.23499999824,74,"Left",60,"Benedict","Cli","Clia2n.jpeg",20,"Cordelia","Mon","Monb3n.jpeg","high","low"
"414",54,"7cc1gwex","learn_value","2","Marina","Cordelia","Rot","Mon","Rotb1n.jpeg","Mondb2.jpeg",60,20,734.240000019781,75,"Right",20,"Cordelia","Mon","Mondb2.jpeg",60,"Marina","Rot","Rotb1n.jpeg","low","medium"
"415",55,"7cc1gwex","learn_value","2","Cordelia","Benedict","Mon","Cli","Monb3n.jpeg","Clia2n.jpeg",20,60,1079.90000001155,75,"Right",60,"Benedict","Cli","Clia2n.jpeg",20,"Cordelia","Mon","Monb3n.jpeg","high","low"
"416",56,"7cc1gwex","learn_value","2","Marina","Benedict","Rot","Cli","Rota1n.jpeg","Clib1n.jpeg",40,60,1008.10000000638,74,"Left",40,"Marina","Rot","Rota1n.jpeg",60,"Benedict","Cli","Clib1n.jpeg","medium","high"
"417",57,"7cc1gwex","learn_value","2","Cordelia","Marina","Mon","Rot","Mona1n.jpeg","Rota3n.jpeg",40,20,724.839999980759,75,"Right",20,"Marina","Rot","Rota3n.jpeg",40,"Cordelia","Mon","Mona1n.jpeg","medium","low"
"418",58,"7cc1gwex","learn_value","2","Cordelia","Benedict","Mon","Cli","Mondb2.jpeg","Clib1n.jpeg",20,60,1715.93000000576,74,"Left",20,"Cordelia","Mon","Mondb2.jpeg",60,"Benedict","Cli","Clib1n.jpeg","low","high"
"419",59,"7cc1gwex","learn_value","2","Marina","Marina","Rot","Rot","Rota1n.jpeg","Rotha3.jpeg",40,20,761.759999993956,75,"Right",20,"Marina","Rot","Rotha3.jpeg",40,"Marina","Rot","Rota1n.jpeg","medium","medium"
"420",60,"7cc1gwex","learn_value","2","Marina","Benedict","Rot","Cli","Rota3n.jpeg","Clifa2.jpeg",20,40,1074.70500000636,75,"Right",40,"Benedict","Cli","Clifa2.jpeg",20,"Marina","Rot","Rota3n.jpeg","high","medium"
"421",61,"7cc1gwex","learn_value","2","Benedict","Benedict","Cli","Cli","Clib3n.jpeg","Clifa2.jpeg",80,40,910.750000010012,75,"Right",40,"Benedict","Cli","Clifa2.jpeg",80,"Benedict","Cli","Clib3n.jpeg","high","high"
"422",62,"7cc1gwex","learn_value","2","Marina","Marina","Rot","Rot","Rota1n.jpeg","Rota3n.jpeg",40,20,940.605000010692,75,"Right",20,"Marina","Rot","Rota3n.jpeg",40,"Marina","Rot","Rota1n.jpeg","medium","medium"
"423",63,"7cc1gwex","learn_value","2","Marina","Benedict","Rot","Cli","Rota1n.jpeg","Clifa1.jpeg",40,80,676.550000003772,74,"Left",40,"Marina","Rot","Rota1n.jpeg",80,"Benedict","Cli","Clifa1.jpeg","medium","high"
"424",64,"7cc1gwex","learn_value","2","Marina","Marina","Rot","Rot","Rotb2n.jpeg","Rotb1n.jpeg",60,60,625.339999998687,74,"Left",60,"Marina","Rot","Rotb2n.jpeg",60,"Marina","Rot","Rotb1n.jpeg","medium","medium"
"425",65,"7cc1gwex","learn_value","2","Benedict","Cordelia","Cli","Mon","Clib3n.jpeg","Monb1n.jpeg",80,20,764.85499998671,74,"Left",80,"Benedict","Cli","Clib3n.jpeg",20,"Cordelia","Mon","Monb1n.jpeg","high","low"
"426",66,"7cc1gwex","learn_value","2","Cordelia","Marina","Mon","Rot","Monb1n.jpeg","Rotb1n.jpeg",20,60,588.694999984,75,"Right",60,"Marina","Rot","Rotb1n.jpeg",20,"Cordelia","Mon","Monb1n.jpeg","medium","low"
"427",67,"7cc1gwex","learn_value","2","Cordelia","Cordelia","Mon","Mon","Monb2n.jpeg","Monb1n.jpeg",40,20,686.790000007022,74,"Left",40,"Cordelia","Mon","Monb2n.jpeg",20,"Cordelia","Mon","Monb1n.jpeg","low","low"
"428",68,"7cc1gwex","learn_value","2","Benedict","Benedict","Cli","Cli","Clib1n.jpeg","Clib3n.jpeg",60,80,657.310000009602,75,"Right",80,"Benedict","Cli","Clib3n.jpeg",60,"Benedict","Cli","Clib1n.jpeg","high","high"
"429",69,"7cc1gwex","learn_value","2","Marina","Marina","Rot","Rot","Rotb2n.jpeg","Rotha3.jpeg",60,20,737.095000018599,74,"Left",60,"Marina","Rot","Rotb2n.jpeg",20,"Marina","Rot","Rotha3.jpeg","medium","medium"
"430",70,"7cc1gwex","learn_value","2","Marina","Benedict","Rot","Cli","Rothb2.jpeg","Clib1n.jpeg",40,60,1283.34999998333,74,"Left",40,"Marina","Rot","Rothb2.jpeg",60,"Benedict","Cli","Clib1n.jpeg","medium","high"
"431",71,"7cc1gwex","learn_value","2","Benedict","Benedict","Cli","Cli","Clifa2.jpeg","Clifa1.jpeg",40,80,665.3150000202,74,"Left",40,"Benedict","Cli","Clifa2.jpeg",80,"Benedict","Cli","Clifa1.jpeg","high","high"
"432",72,"7cc1gwex","learn_value","2","Cordelia","Cordelia","Mon","Mon","Mondb3.jpeg","Monb3n.jpeg",0,20,668.989999976475,75,"Right",20,"Cordelia","Mon","Monb3n.jpeg",0,"Cordelia","Mon","Mondb3.jpeg","low","low"
"433",73,"7cc1gwex","learn_value","2","Cordelia","Cordelia","Mon","Mon","Monb1n.jpeg","Monb3n.jpeg",20,20,707.724999985658,75,"Right",20,"Cordelia","Mon","Monb3n.jpeg",20,"Cordelia","Mon","Monb1n.jpeg","low","low"
"434",74,"7cc1gwex","learn_value","2","Marina","Marina","Rot","Rot","Rotb1n.jpeg","Rotha3.jpeg",60,20,811.744999984512,75,"Right",20,"Marina","Rot","Rotha3.jpeg",60,"Marina","Rot","Rotb1n.jpeg","medium","medium"
"435",75,"7cc1gwex","learn_value","2","Marina","Cordelia","Rot","Mon","Rothb2.jpeg","Mondb2.jpeg",40,20,636.085000005551,74,"Left",40,"Marina","Rot","Rothb2.jpeg",20,"Cordelia","Mon","Mondb2.jpeg","medium","low"
"436",76,"7cc1gwex","learn_value","2","Cordelia","Cordelia","Mon","Mon","Mondb2.jpeg","Monb3n.jpeg",20,20,602.32000000542,75,"Right",20,"Cordelia","Mon","Monb3n.jpeg",20,"Cordelia","Mon","Mondb2.jpeg","low","low"
"437",77,"7cc1gwex","learn_value","2","Cordelia","Cordelia","Mon","Mon","Mondb3.jpeg","Mona1n.jpeg",0,40,644.944999978179,74,"Left",0,"Cordelia","Mon","Mondb3.jpeg",40,"Cordelia","Mon","Mona1n.jpeg","low","low"
"438",78,"7cc1gwex","learn_value","2","Marina","Marina","Rot","Rot","Rotb2n.jpeg","Rota1n.jpeg",60,40,626.640000002226,74,"Left",60,"Marina","Rot","Rotb2n.jpeg",40,"Marina","Rot","Rota1n.jpeg","medium","medium"
"439",79,"7cc1gwex","learn_value","2","Cordelia","Cordelia","Mon","Mon","Mondb3.jpeg","Monb2n.jpeg",0,40,951.164999976754,75,"Right",40,"Cordelia","Mon","Monb2n.jpeg",0,"Cordelia","Mon","Mondb3.jpeg","low","low"
"440",80,"7cc1gwex","learn_value","2","Benedict","Benedict","Cli","Cli","Clifa1.jpeg","Clib3n.jpeg",80,80,558.970000012778,75,"Right",80,"Benedict","Cli","Clib3n.jpeg",80,"Benedict","Cli","Clifa1.jpeg","high","high"
"441",81,"7cc1gwex","learn_value","2","Marina","Marina","Rot","Rot","Rotha3.jpeg","Rota3n.jpeg",20,20,717.644999996992,74,"Left",20,"Marina","Rot","Rotha3.jpeg",20,"Marina","Rot","Rota3n.jpeg","medium","medium"
"442",82,"7cc1gwex","learn_value","2","Cordelia","Marina","Mon","Rot","Monb1n.jpeg","Rotb2n.jpeg",20,60,529.100000014296,75,"Right",60,"Marina","Rot","Rotb2n.jpeg",20,"Cordelia","Mon","Monb1n.jpeg","medium","low"
"443",83,"7cc1gwex","learn_value","2","Marina","Cordelia","Rot","Mon","Rota3n.jpeg","Mondb2.jpeg",20,20,869.589999987511,75,"Right",20,"Cordelia","Mon","Mondb2.jpeg",20,"Marina","Rot","Rota3n.jpeg","low","medium"
"444",84,"7cc1gwex","learn_value","2","Marina","Cordelia","Rot","Mon","Rota1n.jpeg","Mondb2.jpeg",40,20,1490.32500002068,75,"Right",20,"Cordelia","Mon","Mondb2.jpeg",40,"Marina","Rot","Rota1n.jpeg","low","medium"
"445",85,"7cc1gwex","learn_value","2","Marina","Marina","Rot","Rot","Rota3n.jpeg","Rotb2n.jpeg",20,60,654.609999997774,75,"Right",60,"Marina","Rot","Rotb2n.jpeg",20,"Marina","Rot","Rota3n.jpeg","medium","medium"
"446",86,"7cc1gwex","learn_value","2","Benedict","Benedict","Cli","Cli","Clifa1.jpeg","Clib1n.jpeg",80,60,1366.9800000207,74,"Left",80,"Benedict","Cli","Clifa1.jpeg",60,"Benedict","Cli","Clib1n.jpeg","high","high"
"447",87,"7cc1gwex","learn_value","2","Benedict","Cordelia","Cli","Mon","Clifa2.jpeg","Monb1n.jpeg",40,20,852.085000020452,74,"Left",40,"Benedict","Cli","Clifa2.jpeg",20,"Cordelia","Mon","Monb1n.jpeg","high","low"
"448",88,"7cc1gwex","learn_value","2","Benedict","Cordelia","Cli","Mon","Clifa2.jpeg","Monb1n.jpeg",40,20,920.209999982035,74,"Left",40,"Benedict","Cli","Clifa2.jpeg",20,"Cordelia","Mon","Monb1n.jpeg","high","low"
"449",89,"7cc1gwex","learn_value","2","Cordelia","Cordelia","Mon","Mon","Monb1n.jpeg","Mondb2.jpeg",20,20,786.265000002459,75,"Right",20,"Cordelia","Mon","Mondb2.jpeg",20,"Cordelia","Mon","Monb1n.jpeg","low","low"
"450",90,"7cc1gwex","learn_value","2","Cordelia","Benedict","Mon","Cli","Monb2n.jpeg","Clifa2.jpeg",40,40,1359.96500001056,75,"Right",40,"Benedict","Cli","Clifa2.jpeg",40,"Cordelia","Mon","Monb2n.jpeg","high","low"
"451",1,"3km2j2s4","learn_value","1","Cordelia","Marina","Roh","Dek","Rohla2.jpeg","Dekob3.jpeg",40,20,1705.30000003055,75,"Right",20,"Marina","Dek","Dekob3.jpeg",40,"Cordelia","Roh","Rohla2.jpeg","low","high"
"452",2,"3km2j2s4","learn_value","1","Benedict","Cordelia","Cli","Roh","Clifa1.jpeg","Rohlb2.jpeg",40,40,980.179999954998,74,"Left",40,"Benedict","Cli","Clifa1.jpeg",40,"Cordelia","Roh","Rohlb2.jpeg","low","high"
"453",3,"3km2j2s4","learn_value","1","Marina","Marina","Dek","Dek","Dekoa2.jpeg","Deka2n.jpeg",40,40,565.355000086129,74,"Left",40,"Marina","Dek","Dekoa2.jpeg",40,"Marina","Dek","Deka2n.jpeg","low","low"
"454",4,"3km2j2s4","learn_value","1","Marina","Benedict","Dek","Cli","Deka2n.jpeg","Clifa2.jpeg",40,0,981.829999946058,75,"Right",0,"Benedict","Cli","Clifa2.jpeg",40,"Marina","Dek","Deka2n.jpeg","low","low"
"455",5,"3km2j2s4","learn_value","1","Marina","Marina","Dek","Dek","Dekoa1.jpeg","Deka2n.jpeg",60,40,715.04499996081,74,"Left",60,"Marina","Dek","Dekoa1.jpeg",40,"Marina","Dek","Deka2n.jpeg","low","low"
"456",6,"3km2j2s4","learn_value","1","Benedict","Benedict","Cli","Cli","Clib1n.jpeg","Clia3n.jpeg",20,0,743.555000051856,74,"Left",20,"Benedict","Cli","Clib1n.jpeg",0,"Benedict","Cli","Clia3n.jpeg","low","low"
"457",7,"3km2j2s4","learn_value","1","Benedict","Benedict","Cli","Cli","Clifa2.jpeg","Clib1n.jpeg",0,20,767.42499996908,75,"Right",20,"Benedict","Cli","Clib1n.jpeg",0,"Benedict","Cli","Clifa2.jpeg","low","low"
"458",8,"3km2j2s4","learn_value","1","Marina","Marina","Dek","Dek","Deka1n.jpeg","Dekoa2.jpeg",20,40,1076.58000010997,75,"Right",40,"Marina","Dek","Dekoa2.jpeg",20,"Marina","Dek","Deka1n.jpeg","low","low"
"459",9,"3km2j2s4","learn_value","1","Cordelia","Cordelia","Roh","Roh","Roha1n.jpeg","Rohb3n.jpeg",80,80,748.415000038221,75,"Right",80,"Cordelia","Roh","Rohb3n.jpeg",80,"Cordelia","Roh","Roha1n.jpeg","high","high"
"460",10,"3km2j2s4","learn_value","1","Cordelia","Cordelia","Roh","Roh","Rohlb2.jpeg","Rohla3.jpeg",40,60,956.654999870807,74,"Left",40,"Cordelia","Roh","Rohlb2.jpeg",60,"Cordelia","Roh","Rohla3.jpeg","high","high"
"461",11,"3km2j2s4","learn_value","1","Cordelia","Cordelia","Roh","Roh","Rohlb2.jpeg","Rohla2.jpeg",40,40,600.645000115037,75,"Right",40,"Cordelia","Roh","Rohla2.jpeg",40,"Cordelia","Roh","Rohlb2.jpeg","high","high"
"462",12,"3km2j2s4","learn_value","1","Cordelia","Cordelia","Roh","Roh","Rohla2.jpeg","Rohla3.jpeg",40,60,1229.9949999433,74,"Left",40,"Cordelia","Roh","Rohla2.jpeg",60,"Cordelia","Roh","Rohla3.jpeg","high","high"
"463",13,"3km2j2s4","learn_value","1","Cordelia","Marina","Roh","Dek","Rohb3n.jpeg","Deka2n.jpeg",80,40,538.705000188202,75,"Right",40,"Marina","Dek","Deka2n.jpeg",80,"Cordelia","Roh","Rohb3n.jpeg","low","high"
"464",14,"3km2j2s4","learn_value","1","Benedict","Benedict","Cli","Cli","Clifa2.jpeg","Clifa1.jpeg",0,40,585.784999886528,75,"Right",40,"Benedict","Cli","Clifa1.jpeg",0,"Benedict","Cli","Clifa2.jpeg","low","low"
"465",15,"3km2j2s4","learn_value","1","Cordelia","Benedict","Roh","Cli","Rohla3.jpeg","Clib3n.jpeg",60,40,432.825000025332,75,"Right",40,"Benedict","Cli","Clib3n.jpeg",60,"Cordelia","Roh","Rohla3.jpeg","low","high"
"466",16,"3km2j2s4","learn_value","1","Marina","Marina","Dek","Dek","Deka1n.jpeg","Deka2n.jpeg",20,40,814.569999929518,74,"Left",20,"Marina","Dek","Deka1n.jpeg",40,"Marina","Dek","Deka2n.jpeg","low","low"
"467",17,"3km2j2s4","learn_value","1","Benedict","Benedict","Cli","Cli","Clia2n.jpeg","Clib3n.jpeg",20,40,4001.95499998517,74,"Left",20,"Benedict","Cli","Clia2n.jpeg",40,"Benedict","Cli","Clib3n.jpeg","low","low"
"468",18,"3km2j2s4","learn_value","1","Marina","Marina","Dek","Dek","Dekoa1.jpeg","Deka1n.jpeg",60,20,524.100000038743,75,"Right",20,"Marina","Dek","Deka1n.jpeg",60,"Marina","Dek","Dekoa1.jpeg","low","low"
"469",19,"3km2j2s4","learn_value","1","Marina","Marina","Dek","Dek","Deka3n.jpeg","Deka1n.jpeg",20,20,486.710000084713,74,"Left",20,"Marina","Dek","Deka3n.jpeg",20,"Marina","Dek","Deka1n.jpeg","low","low"
"470",20,"3km2j2s4","learn_value","1","Benedict","Marina","Cli","Dek","Clifa2.jpeg","Dekob3.jpeg",0,20,495.100000174716,75,"Right",20,"Marina","Dek","Dekob3.jpeg",0,"Benedict","Cli","Clifa2.jpeg","low","low"
"471",21,"3km2j2s4","learn_value","1","Benedict","Marina","Cli","Dek","Clifa1.jpeg","Deka2n.jpeg",40,40,554.950000019744,74,"Left",40,"Benedict","Cli","Clifa1.jpeg",40,"Marina","Dek","Deka2n.jpeg","low","low"
"472",22,"3km2j2s4","learn_value","1","Marina","Marina","Dek","Dek","Dekob3.jpeg","Deka1n.jpeg",20,20,380.180000094697,74,"Left",20,"Marina","Dek","Dekob3.jpeg",20,"Marina","Dek","Deka1n.jpeg","low","low"
"473",23,"3km2j2s4","learn_value","1","Marina","Cordelia","Dek","Roh","Deka3n.jpeg","Rohla3.jpeg",20,60,917.744999984279,74,"Left",20,"Marina","Dek","Deka3n.jpeg",60,"Cordelia","Roh","Rohla3.jpeg","low","high"
"474",24,"3km2j2s4","learn_value","1","Benedict","Benedict","Cli","Cli","Clifa1.jpeg","Clia3n.jpeg",40,0,350.834999931976,75,"Right",0,"Benedict","Cli","Clia3n.jpeg",40,"Benedict","Cli","Clifa1.jpeg","low","low"
